SamplingTime, AccelerationX, AccelerationY, AccelerationZ, GyroX, GyroY, GyroZ, MagneticFieldX, MagneticFieldY, MagneticFieldZ
1648227643.638250, , , , , , , , , 
1648227643.671584, -0.167893, -9.863812, 0.514005, -0.012441, 0.014840, 0.002449, 95.228271, -2.990036, 68.927826
1648227643.704897, -0.242563, -9.800515, 0.580295, -0.014517, 0.016564, -0.009653, 95.231949, -2.791901, 68.744110
1648227643.738231, -0.028132, -9.776124, 0.503830, -0.020387, 0.019050, -0.012963, 95.427536, -2.764954, 69.003922
1648227643.771577, -0.072574, -9.769690, 0.563086, -0.023714, 0.012049, -0.011384, 95.545135, -3.027954, 68.732559
1648227643.804960, -0.044891, -9.766397, 0.557699, -0.028704, 0.016203, -0.009943, 95.425980, -2.912033, 68.518463
1648227643.838262, 0.011522, -9.777770, 0.421379, -0.030288, 0.021210, 0.003800, 95.309891, -2.918045, 68.872269
1648227643.871580, -0.177171, -9.718962, 0.384419, -0.022927, 0.043321, 0.006973, 95.260910, -2.963104, 68.738815
1648227643.904921, -0.138864, -9.634267, 0.426318, -0.030231, 0.089558, -0.007656, 95.307266, -2.850281, 69.009186
1648227643.938236, -0.008978, -9.913940, 0.509366, -0.050884, 0.014590, 0.010719, 95.327423, -2.839020, 68.641403
1648227643.971580, -0.061651, -9.865607, 0.712574, -0.081533, -0.003973, 0.003199, 95.655136, -2.588287, 68.887497
1648227644.004951, -0.295085, -9.763405, 0.562637, -0.112858, -0.076318, -0.026779, 95.346710, -2.540802, 68.523270
1648227644.038236, -0.956035, -10.008361, 0.481683, -0.091209, 0.004586, -0.106135, 95.379242, -2.653458, 68.255127
1648227644.071571, -0.496647, -9.999084, 0.371101, -0.095657, 0.046916, -0.162921, 95.569122, -2.611130, 68.350357
1648227644.104906, -0.527323, -9.828048, 0.415544, -0.096912, 0.065178, -0.231446, 95.583084, -2.984375, 68.146118
1648227644.138235, -0.811485, -9.918429, 0.464774, -0.096867, 0.073547, -0.362821, 95.940704, -3.017883, 68.003540
1648227644.171636, -1.063325, -9.889998, 0.299874, -0.075689, -0.023772, -0.568376, 96.142944, -3.434906, 67.972473
1648227644.204907, -1.975516, -10.418967, 0.315436, -0.006618, -0.194015, -0.825923, 96.554245, -3.906845, 67.834412
1648227644.238235, -1.928529, -10.704176, 0.581342, 0.053616, -0.265998, -1.130276, 96.765320, -4.243393, 67.592987
1648227644.271584, -1.035642, -11.363330, 1.108066, 0.171452, -0.504514, -1.432532, 97.107208, -4.893997, 67.321304
1648227644.304971, -0.474202, -11.050288, 1.424400, 0.365035, -0.465735, -1.541450, 98.006241, -6.486649, 67.222168
1648227644.338250, 0.311845, -10.759991, 1.430087, 0.440605, -0.172685, -1.485847, 98.927078, -7.465866, 67.034409
1648227644.371575, -1.152958, -9.646987, -0.127192, 0.377087, 0.369500, -0.906720, 99.529175, -8.263519, 66.439926
1648227644.404729, -1.428441, -8.281394, 0.400131, 0.293413, 1.008768, -0.346147, 100.727722, -8.944656, 65.746994
1648227644.438244, -0.253935, -8.173804, 0.508469, 0.052288, 1.002651, 0.286973, 101.492813, -9.190689, 65.173645
1648227644.471575, 0.303914, -8.612243, 0.424522, -0.268217, 0.539611, 1.061422, 101.934555, -9.085678, 63.740768
1648227644.504901, 0.114622, -8.933664, 0.749535, -0.320042, 0.529377, 1.426892, 102.309402, -8.638306, 63.016922
1648227644.537742, -0.608726, -9.601497, 0.727688, -0.299485, 0.808921, 1.669001, 102.664688, -8.188171, 62.053299
1648227644.571569, -1.098639, -9.906907, 0.661697, -0.183860, 1.326065, 1.842191, 103.344269, -8.132294, 61.027618
1648227644.604416, -0.891391, -10.519524, 1.056292, -0.181208, 1.486899, 1.936856, 104.170135, -7.746246, 60.251343
1648227644.638252, -1.356914, -10.429442, 0.966958, -0.192938, 1.553471, 1.938849, 105.706787, -8.118744, 58.937851
1648227644.671599, -0.739958, -10.523115, 1.412280, -0.245087, 1.330409, 1.958268, 106.736984, -8.689438, 58.082230
1648227644.704943, -0.531064, -10.048913, 1.345392, -0.248822, 0.572854, 2.058890, 107.204330, -9.141159, 57.283386
1648227644.738236, -0.180463, -9.308955, 1.563713, -0.130766, -0.182812, 2.071442, 107.313690, -10.425659, 56.595978
1648227644.771572, -0.536451, -8.959252, 1.526453, 0.093258, -0.775291, 1.911703, 106.751190, -11.426117, 55.955322
1648227644.804898, -1.091606, -8.758738, 0.892738, 0.306324, -1.126837, 1.378208, 105.733063, -12.172791, 55.465195
1648227644.838240, -2.448819, -8.979453, 0.156671, 0.432927, -0.412664, 0.525659, 105.420090, -13.878510, 54.686996
1648227644.871571, -1.273117, -9.005640, 0.106542, 0.566001, 0.367273, -0.459736, 106.238937, -14.921646, 54.663773
1648227644.904900, 3.448698, -8.365490, 1.377115, 0.768358, 0.486803, -1.355503, 107.892410, -15.926987, 53.875214
1648227644.937362, 1.250970, -13.448979, 1.690755, -0.088118, -0.519341, -0.977925, 109.397293, -16.593445, 53.903427
1648227644.971590, -10.445453, -13.567791, -4.096030, 0.660069, 0.445283, -1.293024, 110.649033, -17.285461, 53.474411
1648227645.004910, 2.204162, -13.099874, 0.500089, 0.935096, 0.773152, -1.651661, 112.860184, -17.760529, 54.850357
1648227645.038252, 1.503559, -7.018303, 5.083938, 0.969489, 0.148274, -1.384332, 114.681686, -18.165619, 55.488327
1648227645.071588, 3.534739, -10.837354, 6.584653, 0.407711, -1.191751, -0.915482, 115.195099, -18.229004, 55.827377
1648227645.104906, -2.854337, -10.119692, -0.366163, 0.420236, -0.249560, -0.766089, 114.909012, -18.516922, 56.148727
1648227645.138301, -0.321122, -9.527875, 1.523311, 0.389554, -0.220123, -0.703340, 115.918808, -18.629227, 56.439804
1648227645.171568, 0.246154, -9.287108, 4.084658, 0.284809, -0.894045, -0.555672, 115.957458, -18.853088, 56.474564
1648227645.204962, -0.770035, -9.430760, 2.863465, 0.254021, -0.479750, -0.600728, 116.173203, -18.743912, 56.517502
1648227645.238303, -0.727538, -9.509769, 2.714426, 0.227176, -0.782018, -0.575518, 116.261337, -19.063477, 56.946503
1648227645.271571, -1.024718, -9.495254, 2.579004, 0.234967, -0.369940, -0.738491, 116.713837, -19.047333, 57.110214
1648227645.304919, 0.020949, -9.687688, 2.724452, 0.212792, -0.384393, -0.763218, 117.209579, -19.281998, 57.169296
1648227645.338254, 0.775572, -9.502437, 2.680159, 0.189474, -0.281870, -0.812272, 117.722931, -19.178894, 57.379730
1648227645.371578, 0.483180, -9.070433, 3.112612, 0.213377, -0.266632, -0.824828, 118.492554, -19.308777, 57.358780
1648227645.404911, 1.683573, -9.662848, 2.401235, 0.233095, -0.504843, -0.834881, 119.485764, -19.378662, 57.630035
1648227645.438240, 0.411653, -9.216180, 3.127875, 0.205684, -0.506949, -0.921835, 119.818909, -19.202774, 57.893387
1648227645.471612, -0.051625, -9.013870, 2.713379, 0.256085, -0.437592, -1.112588, 120.742538, -19.230179, 57.850845
1648227645.504908, -0.497844, -9.985317, 2.425925, 0.290994, -0.332397, -1.383520, 122.467133, -18.616577, 57.641037
1648227645.538242, -1.059434, -10.855909, 2.279729, 0.305915, -0.149505, -1.793865, 124.213989, -18.188126, 58.065887
1648227645.571571, 0.795922, -11.531074, 3.431789, 0.262433, -0.342323, -1.997645, 126.099625, -17.537415, 58.635223
1648227645.604906, -0.271592, -13.196690, 4.117279, 0.154657, -0.558715, -2.236375, 129.495682, -16.248520, 58.761047
1648227645.638250, -2.562544, -14.071771, 2.719364, 0.213702, -1.077127, -2.505134, 132.409317, -15.120987, 59.084259
1648227645.671574, -2.026542, -18.647389, 0.395941, 0.206336, -2.586409, -2.516218, 134.903320, -13.543457, 57.882462
1648227645.704909, -4.602105, -15.874006, 2.382231, 0.302757, -1.033166, -3.153145, 138.536423, -11.758316, 57.923325
1648227645.738241, 2.069189, -12.224794, 3.481768, 0.313175, -0.618674, -2.253475, 145.553299, -9.117249, 58.766983
1648227645.771571, 8.541763, -5.907842, 4.237138, 0.489058, 0.306574, -0.870955, 150.732315, -8.482010, 61.689224
1648227645.804919, -1.301099, -5.774066, 1.841291, 0.049001, -0.038128, 0.782126, 154.949753, -10.014175, 63.753296
1648227645.838243, 0.809689, -2.340182, 1.646014, -0.184634, 0.291072, 1.933270, 160.126556, -15.597351, 66.556290
1648227645.871582, 2.851644, -3.753659, 0.726939, -0.630797, 0.735335, 3.259278, 162.452606, -21.899597, 69.489395
1648227645.904936, 1.949030, -5.486463, 1.892317, -1.130749, 1.543537, 4.016314, 162.977234, -30.914291, 72.569031
1648227645.938244, 2.589628, -5.553949, 2.458695, -1.382125, 1.908610, 4.678717, 159.856079, -45.612991, 78.047958
1648227645.970795, 3.378967, -8.353070, 2.318635, -1.453828, 1.176654, 5.313430, 152.967133, -58.123932, 81.032211
1648227646.004918, 4.756082, -11.036372, 4.901230, -1.522524, 0.285504, 5.804072, 141.385223, -70.768967, 82.298187
1648227646.038244, 3.181744, -13.606248, 3.732261, -1.299259, 0.260646, 5.904520, 119.064896, -83.998367, 81.998398
1648227646.071573, 0.805200, -13.237840, 2.620304, -0.497052, 0.966661, 5.151690, 99.276764, -88.393555, 81.869873
1648227646.104955, 1.889624, -15.374965, 3.926790, -0.115154, 1.442667, 3.681077, 81.474243, -88.669891, 81.842896
1648227646.138257, 5.647922, -9.467122, 3.608361, 0.166252, 0.493379, 0.641022, 70.793274, -87.509338, 80.653595
1648227646.171574, 4.594174, -10.305841, 3.715053, 0.728520, 0.344984, -1.747720, 71.145462, -89.757416, 83.863739
1648227646.204964, 4.797681, -14.353089, 5.537040, 0.334416, -0.358931, -2.822223, 77.245117, -92.744446, 85.594589
1648227646.238316, -6.559364, -19.206884, -7.524078, 0.829696, 0.739416, -3.087809, 83.146790, -94.372314, 87.868927
1648227646.271582, 4.979042, -8.783877, 0.516100, 1.083158, 0.869027, -2.703795, 93.719788, -96.332474, 90.692154
1648227646.304913, 2.730138, -9.275287, 7.422025, 1.196539, 0.871457, -2.053437, 99.441849, -96.754028, 93.569656
1648227646.338249, 5.749526, -9.402180, 5.737854, 0.468552, -1.627054, -1.191734, 104.130707, -96.705139, 95.824066
1648227646.371579, 0.538546, -10.637139, 0.830788, 0.387914, -1.728552, -0.829479, 108.757874, -96.710968, 97.668884
1648227646.404912, 0.205901, -9.684995, 1.025766, 0.310131, 0.383287, -0.920523, 111.204712, -96.722824, 98.742371
1648227646.438246, 3.770568, -9.506926, 4.264372, 0.270135, -0.902768, -0.528187, 113.516495, -96.340012, 99.371216
1648227646.471578, -0.901866, -8.895656, 2.372355, 0.230394, -0.384052, -0.563437, 115.191650, -95.968658, 99.963043
1648227646.504936, 0.412102, -9.724200, 2.740613, 0.226822, -0.318294, -0.671686, 117.992264, -95.811279, 100.882233
1648227646.538254, 0.207398, -9.335142, 2.744503, 0.221960, -0.386599, -0.751380, 120.377106, -95.278122, 101.260681
1648227646.571586, -0.198868, -9.185355, 2.390461, 0.226436, -0.280888, -0.918881, 122.863113, -94.775513, 101.701935
1648227646.604916, 0.394295, -9.194034, 2.390910, 0.235101, -0.235456, -1.088839, 127.091492, -94.208450, 102.743683
1648227646.638254, -0.298527, -9.450213, 1.870171, 0.268843, -0.213402, -1.386281, 131.141022, -93.346878, 103.649521
1648227646.671164, 0.554258, -10.145878, 3.242198, 0.262405, -0.542347, -1.565396, 135.712143, -92.241989, 103.611832
1648227646.704918, -1.595436, -11.555315, 3.007417, 0.235260, -0.609144, -1.978825, 143.456985, -90.229614, 103.909943
1648227646.738249, -1.298256, -12.744186, 2.015768, 0.227436, -0.606962, -2.578119, 150.375534, -87.717072, 103.516174
1648227646.771586, -0.437540, -13.592332, 2.970306, 0.136109, -0.887040, -2.860161, 158.002899, -84.627121, 103.120575
1648227646.804962, -2.245761, -17.210120, 4.029741, 0.038506, -1.365370, -3.001369, 166.225082, -80.605347, 100.937271
1648227646.838253, -2.431611, -19.131617, 2.218228, -0.077227, -2.876536, -2.584370, 176.023407, -76.035721, 94.226883
1648227646.871616, -5.281160, -15.013889, 3.604471, -0.010693, -0.301483, -3.264337, 182.387924, -71.413467, 90.570541
1648227646.904920, 0.183306, -10.188376, 3.948787, 0.377376, 0.172356, -2.251560, 186.163086, -68.327637, 90.673187
1648227646.938253, 6.562058, -6.324433, 5.173122, 0.214692, 0.580843, -0.597977, 185.941788, -66.361008, 94.007355
1648227646.971598, 0.032322, -3.998766, 1.337311, -0.187345, 0.332409, 1.220421, 181.669510, -68.903839, 94.006393
1648227647.004916, 0.653916, -2.047342, 1.621473, -0.197539, 0.475597, 2.025946, 174.500885, -73.613861, 94.460587
1648227647.038249, 2.195633, -3.590405, 0.968006, -0.393245, 1.029616, 2.917915, 161.638580, -81.641830, 95.653992
1648227647.071652, 2.660108, -5.142895, 1.879897, -0.807535, 1.293182, 4.087419, 148.289825, -87.999252, 96.146683
1648227647.104985, 2.311302, -5.982362, 2.118120, -1.028133, 1.392489, 4.877594, 131.530136, -93.167480, 95.841354
1648227647.138275, 2.696919, -8.072949, 1.958008, -1.079025, 0.924275, 5.474028, 104.780960, -96.106155, 93.560318
1648227647.171588, 4.140024, -11.695525, 3.617040, -1.120726, 0.069210, 6.155931, 82.385300, -92.328232, 91.620773
1648227647.204931, 3.937265, -15.196896, 2.914791, -1.030740, 0.198783, 6.284648, 60.824249, -82.397827, 90.166046
1648227647.238333, 0.544382, -14.847342, 1.836652, -0.855111, 0.972534, 5.536877, 44.410950, -68.268036, 88.367096
1648227647.271601, 4.633977, -16.505028, 4.717325, -0.351065, 2.054901, 3.636766, 32.714890, -49.729797, 84.342606
1648227647.304925, 7.233482, -8.122179, 3.979612, 0.089273, -0.394718, 0.296632, 32.033142, -42.670303, 85.144836
1648227647.338261, 5.434838, -8.497321, 2.251896, 0.756303, -0.122986, -2.120099, 35.611862, -42.767029, 89.153091
1648227647.371674, 0.605284, -16.252140, 4.866365, 0.082307, -0.402231, -2.250181, 42.209290, -46.853180, 93.019073
1648227647.404973, -6.929717, -20.650289, -3.753360, 0.941051, 1.835454, -3.311378, 47.226624, -49.353775, 95.629105
1648227647.438273, 10.788572, -12.781446, 2.270451, 1.199633, 0.362486, -3.019371, 54.065552, -53.249954, 96.744263
1648227647.471580, 0.945859, -8.571691, 6.508637, 0.977771, -0.224499, -2.135171, 60.874710, -56.004578, 101.458542
1648227647.504925, 4.204517, -9.869947, 5.605425, 0.445622, -1.339612, -1.382992, 65.046143, -57.515411, 104.653580
1648227647.538265, 0.637755, -10.119842, 2.870947, 0.247850, -0.790747, -0.981852, 68.164978, -57.936035, 106.930862
1648227647.571654, 1.575235, -10.687567, 1.268927, 0.215650, -0.386836, -0.904509, 70.572815, -58.548737, 108.615219
1648227647.604922, -0.809689, -8.725818, 3.490297, 0.166271, -0.587602, -0.708876, 73.790375, -58.992569, 110.128128
1648227647.638296, 0.996287, -9.223812, 2.539200, 0.178560, -0.382484, -0.725400, 75.549057, -59.301498, 111.319153
1648227647.671648, -0.098462, -9.237728, 2.532467, 0.197849, -0.440456, -0.765573, 77.837708, -59.334610, 112.529968
1648227647.705004, 1.567903, -9.290400, 2.729390, 0.206013, -0.376640, -0.824805, 80.456924, -59.775208, 113.678558
1648227647.738264, 0.358232, -9.157971, 2.740164, 0.195051, -0.359108, -0.913264, 82.866180, -59.768234, 115.078339
1648227647.771631, 0.552163, -9.433005, 2.690783, 0.201917, -0.392348, -1.066305, 85.587448, -60.179916, 116.005188
1648227647.804928, 0.177021, -8.993519, 2.456451, 0.216765, -0.296744, -1.352605, 89.594254, -60.267334, 117.154678
1648227647.838267, 1.507000, -9.949105, 2.871995, 0.184338, -0.509100, -1.520118, 93.155289, -60.427017, 118.462662
1648227647.871641, 0.421379, -11.115680, 2.739266, 0.086803, -0.744004, -1.748236, 97.473862, -60.448471, 119.285477
1648227647.904046, -2.346467, -12.659641, 2.393453, 0.070723, -0.570918, -2.162380, 102.543533, -60.327652, 120.617661
1648227647.938342, -0.570119, -12.869432, 2.940080, -0.013714, -0.804198, -2.616178, 110.387726, -59.212326, 122.125565
1648227647.971593, -2.537704, -14.680796, 3.749619, -0.126149, -1.158765, -2.848227, 117.273087, -57.900909, 122.869675
1648227648.004933, -4.811148, -17.759140, 3.045425, -0.179026, -1.917115, -2.749547, 124.760056, -55.733902, 123.571533
1648227648.038263, -4.016573, -17.050307, 2.755576, 0.084182, -0.396557, -3.475983, 134.502411, -51.414764, 124.740143
1648227648.071615, -3.060837, -13.965378, 6.170905, 0.413984, 0.362817, -2.897197, 138.650681, -47.150543, 126.832977
1648227648.104973, 16.360029, -9.191789, 3.713107, 0.458813, 1.444239, -1.728305, 140.041809, -42.970261, 129.847733
1648227648.138279, -1.419612, -5.077653, 1.845929, -0.537342, 0.059651, 1.276828, 140.852432, -43.154327, 128.861847
1648227648.171643, -0.938228, 0.815375, 0.836474, -0.199327, 0.769406, 2.549700, 137.531815, -45.840454, 128.982834
1648227648.204926, 1.420659, -3.736152, 1.034744, -0.130771, 1.976910, 3.466042, 129.924484, -49.669220, 130.365967
1648227648.238275, 2.493112, -5.962610, 3.114258, -1.000741, 1.147099, 4.952398, 115.252853, -56.616653, 129.095840
1648227648.271621, 7.246949, -6.692691, 3.009811, -0.926447, -0.024718, 5.402006, 101.983521, -59.710403, 126.021118
1648227648.304992, 4.157382, -8.344990, 2.910002, -0.749040, -0.596528, 6.126863, 87.910431, -58.125977, 122.664917
1648227648.338265, 3.092111, -11.466580, 3.179649, -0.680614, -0.527708, 6.231809, 74.867233, -51.046967, 118.792053
1648227648.371602, 0.195876, -13.376405, 1.717540, -0.584635, 0.461272, 5.930645, 63.811752, -37.344376, 112.499786
1648227648.404971, -0.097115, -15.270368, 2.659659, -0.405281, 1.889925, 4.914554, 60.279999, -28.931427, 105.884262
1648227648.438294, 4.091092, -14.425364, 3.331532, -0.133097, 1.985729, 3.881526, 59.026489, -24.502045, 99.866440
1648227648.471638, 3.509451, -9.979781, 3.392584, 0.129330, 0.006650, 0.898860, 59.360352, -24.744247, 95.846649
1648227648.504930, 3.463362, -9.040356, 1.850718, 0.634268, 0.399288, -1.310346, 61.000565, -28.843201, 94.336304
1648227648.538323, 6.699276, -9.765200, 1.558176, 0.860811, 0.365914, -2.445072, 63.305389, -34.351212, 93.301010
1648227648.571593, -2.000206, -11.944074, 6.586898, 0.112572, 1.177854, -2.061750, 67.077866, -41.626709, 90.450974
1648227648.604928, -9.649381, -22.240637, -5.529558, 0.934429, 1.763182, -3.008535, 69.719223, -46.058929, 88.576416
1648227648.638340, 10.796503, -15.714642, 2.060809, 1.038739, 0.531667, -3.437581, 74.871750, -50.410141, 86.659058
1648227648.671597, 3.295170, -4.787206, 7.434146, 1.362381, 0.802256, -2.421111, 79.223740, -53.290512, 86.132538
1648227648.705054, 5.121646, -10.992678, 8.164976, 0.380767, -1.145595, -1.537103, 84.345474, -55.715775, 86.760468
1648227648.738265, 3.286341, -9.881319, 2.103605, 0.333070, -2.241671, -0.767642, 86.550430, -56.307571, 88.590927
1648227648.771598, -0.089633, -10.540772, 0.488417, 0.223737, -0.027602, -0.795895, 88.280869, -56.902405, 88.990677
1648227648.804936, 2.664746, -9.040805, 4.525789, 0.217762, -0.845137, -0.460293, 89.727173, -57.041763, 89.226349
1648227648.838276, -0.262464, -9.071032, 3.400963, 0.226908, -0.705436, -0.454396, 90.781006, -57.279099, 90.001846
1648227648.871601, 0.719458, -9.111733, 2.655170, 0.205511, -0.524358, -0.558282, 91.933685, -57.282272, 90.371826
1648227648.904874, -0.672471, -9.465177, 2.854936, 0.213080, -0.403819, -0.785759, 93.817673, -57.598709, 90.705780
1648227648.938304, -0.219668, -9.061754, 3.131167, 0.220050, -0.420161, -0.962676, 95.759796, -57.927292, 90.904831
1648227648.971598, 0.035763, -8.894758, 2.525883, 0.235526, -0.616068, -1.162745, 98.041489, -58.517288, 91.138596
1648227649.004935, 0.414945, -9.615563, 2.641553, 0.283642, -0.614726, -1.457460, 102.102737, -59.106995, 90.904312
1648227649.038269, 1.166724, -11.002105, 3.164536, 0.227725, -0.946503, -1.621136, 105.379440, -59.225037, 91.378159
1648227649.071634, -2.221370, -11.594819, 2.035071, 0.229491, -0.778482, -2.044089, 109.406509, -59.443619, 91.012711
1648227649.104940, -1.196053, -12.273426, 2.098368, 0.228649, -0.596955, -2.682395, 114.378418, -58.890778, 90.112137
1648227649.138282, -1.820940, -13.548787, 4.451868, 0.157771, -0.952009, -3.035277, 122.141983, -57.621628, 88.347321
1648227649.171597, -3.171719, -18.088194, 4.601955, 0.099097, -1.729581, -2.961595, 128.103958, -55.666229, 86.421082
1648227649.204934, -2.669385, -18.042255, 1.068861, 0.236651, -2.462351, -2.892705, 133.256714, -53.205292, 83.646225
1648227649.237909, -2.039710, -15.161132, 6.437559, 0.117215, -0.319833, -2.632681, 140.306244, -48.758621, 81.781265
1648227649.271659, 3.254468, -8.405892, 2.861520, 0.590759, 0.251661, -1.486113, 143.665878, -46.344650, 82.387009
1648227649.304946, 3.568408, -5.728127, 3.158401, 0.306024, 0.321312, 0.348090, 145.028946, -44.955383, 84.806854
1648227649.337907, 0.078260, -2.249652, 0.378284, 0.268416, 0.504488, 1.811035, 144.241241, -46.331329, 86.144287
1648227649.371678, 1.905336, -2.839822, 0.406116, 0.133839, 0.324834, 2.667839, 139.709518, -50.705444, 88.533157
1648227649.404940, 2.243966, -4.426879, 0.329203, -0.082861, 0.238066, 3.571611, 133.625824, -54.436417, 89.444916
1648227649.438269, 2.499397, -6.075885, 0.960823, -0.560813, 0.462910, 4.729373, 125.034958, -58.753952, 90.167084
1648227649.471614, 1.814805, -6.843077, 0.482282, -0.750378, 0.974384, 5.396525, 108.624664, -61.560730, 89.684723
1648227649.504967, 1.752256, -8.567052, 1.364994, -0.925891, 1.258181, 5.937724, 93.941986, -59.521103, 89.221542
1648227649.538277, 1.611148, -13.446285, 2.259677, -0.974812, 1.463032, 6.510768, 78.912430, -52.189865, 89.012054
1648227649.571603, 2.917933, -18.711285, 4.625747, -1.061173, 1.630866, 6.219628, 66.288528, -34.828796, 89.332092
1648227649.604457, 4.163816, -15.803826, 4.244321, -0.757144, 0.566247, 5.440859, 64.136887, -23.475250, 92.109177
1648227649.638274, 8.592640, -10.877157, 4.767155, -0.082955, -0.418534, 1.854963, 65.319763, -17.078720, 95.797974
1648227649.671617, 5.202002, -8.824429, 3.627365, 0.669343, -1.024512, -1.753468, 71.292831, -16.804169, 101.971512
1648227649.705010, 4.377498, -10.199748, 1.614889, 0.809588, 1.160631, -3.368850, 75.570038, -19.478653, 103.365341
1648227649.738273, -10.150667, -23.709031, -10.301202, 0.883774, 2.416412, -3.933728, 78.986511, -22.604614, 103.501251
1648227649.771606, 8.887277, -9.730784, 5.515343, 1.348334, 1.538792, -3.920891, 81.954636, -26.886246, 102.632187
1648227649.804946, 8.237700, -4.636521, 5.919215, 1.227937, 0.854192, -2.659724, 86.915085, -29.506546, 103.957840
1648227649.838387, 7.752275, -11.682956, 6.186019, 0.358039, -1.924093, -1.519263, 90.484177, -30.711380, 105.043945
1648227649.871630, 1.074548, -10.860548, 1.233762, 0.269124, -1.125296, -1.054522, 93.809860, -31.094193, 106.155289
1648227649.904957, 0.819116, -10.619332, 1.376816, 0.241253, 0.411892, -1.077910, 96.320847, -31.540100, 107.086136
1648227649.937888, 3.133860, -9.637111, 4.143316, 0.125129, -0.767329, -0.664422, 98.027802, -32.035446, 106.822754
1648227649.971608, -0.453402, -9.093028, 2.715773, 0.107126, -0.467258, -0.494719, 99.236130, -32.357162, 107.132965
1648227650.004956, 1.424400, -9.367913, 1.950676, 0.114919, -0.488016, -0.548196, 101.287918, -32.320908, 107.437927
1648227650.038264, -0.182259, -9.527875, 2.470966, 0.154876, -0.498344, -0.668611, 102.960876, -32.802414, 107.911209
1648227650.071613, 0.552312, -8.670751, 3.149273, 0.155129, -0.505772, -0.908968, 104.418320, -32.993576, 107.935852
1648227650.104936, 0.464325, -8.542960, 2.574216, 0.196730, -0.652012, -1.064270, 107.340698, -32.590408, 108.249008
1648227650.138268, 0.781258, -9.635465, 2.290652, 0.201569, -0.700838, -1.244653, 110.217300, -32.843155, 107.905594
1648227650.171614, -2.196830, -10.453384, 1.800739, 0.231899, -0.470850, -1.818256, 113.504013, -33.007812, 108.204010
1648227650.204944, -1.678635, -12.125434, 2.401384, 0.261179, -0.252052, -2.341735, 116.751541, -32.717911, 108.205109
1648227650.238279, -0.429909, -13.188011, 2.398840, 0.219719, -0.450624, -2.745296, 124.102600, -31.651718, 108.032928
1648227650.271610, -1.975216, -15.165921, 5.010466, 0.084438, -0.919911, -3.167612, 130.365753, -31.097015, 107.275665
1648227650.304947, -3.806930, -17.456424, 4.679467, 0.058313, -1.964315, -3.071249, 137.906982, -29.877487, 105.560822
1648227650.338280, -1.249175, -20.721217, 3.761440, -0.276598, -3.692101, -2.494072, 151.111191, -28.690811, 100.554230
1648227650.371615, -6.017976, -14.781202, 4.134936, -0.217752, -0.490087, -3.330349, 160.010925, -27.982666, 98.669144
1648227650.404942, 10.787076, -8.430134, 4.050540, 0.489357, 1.897332, -1.586209, 166.756424, -28.630829, 100.542725
1648227650.438282, 5.309441, -7.113323, 1.817798, 0.104266, 0.112551, 0.180156, 170.542282, -33.746964, 104.324905
1648227650.471337, 0.625635, -1.687314, 0.326659, 0.216514, 0.612964, 1.620330, 169.280563, -41.400848, 107.547729
1648227650.504988, 2.370409, -2.446874, 0.676362, 0.198486, 0.602384, 2.922212, 165.332214, -50.085373, 110.265503
1648227650.538294, 2.225560, -3.596241, 0.821510, -0.001333, 0.643464, 3.970539, 157.625153, -60.337173, 114.221176
1648227650.571642, 2.465130, -4.445434, 0.580893, -0.209342, 0.708913, 4.778178, 140.969879, -74.313324, 118.368011
1648227650.604957, 1.735796, -6.658724, 1.386243, -0.463589, 1.008659, 5.669860, 122.792999, -82.664551, 120.995132
1648227650.638296, 0.817470, -10.045472, 1.607856, -0.717939, 1.196834, 6.196466, 99.684158, -86.737106, 121.969635
1648227650.671617, 2.493860, -13.739126, 2.455104, -0.724940, 1.376046, 6.461258, 64.854904, -81.180832, 119.912918
1648227650.704947, 3.738546, -18.169896, 2.878579, -1.163262, 1.542433, 6.077695, 41.768814, -67.648605, 114.542313
1648227650.738284, 1.060482, -16.035615, 2.896685, -0.712026, 2.024456, 4.706475, 25.983231, -51.227295, 107.852478
1648227650.771617, 10.249278, -12.221801, 4.821623, -0.033818, 1.109750, 2.397710, 16.074020, -32.428665, 100.781845
1648227650.804948, 5.672462, -7.257424, 5.024531, 0.564525, -0.790091, -1.328905, 17.131271, -29.381638, 101.454514
1648227650.838286, 4.733786, -12.972982, 3.923498, 0.709329, 0.449350, -3.157752, 19.967514, -31.944809, 101.598633
1648227650.871635, -16.162058, -18.979884, -6.979247, 0.553306, 0.421090, -2.589564, 23.029251, -33.819748, 101.315842
1648227650.905034, 8.399757, -12.935423, 2.398242, 1.235580, 1.288888, -3.531363, 28.906296, -39.234253, 95.509171
1648227650.938297, 6.272359, -8.999355, 5.935226, 1.222433, 0.327730, -2.497582, 33.182724, -42.988770, 94.326645
1648227650.971684, 5.124938, -8.421455, 8.192958, 0.606031, -1.154789, -1.730291, 37.235153, -45.336304, 95.690079
1648227651.004953, 2.353351, -10.281300, 2.933496, 0.404391, -1.800652, -0.957095, 41.479004, -46.848648, 100.355667
1648227651.038284, 0.414496, -9.988160, 1.216404, 0.230619, 0.472437, -1.063744, 42.992477, -47.748489, 100.281921
1648227651.071615, 4.842572, -9.842413, 3.725378, 0.186757, -1.126636, -0.563926, 45.229492, -48.465485, 100.917023
1648227651.104955, -1.592593, -8.906580, 2.987964, 0.198554, -0.649715, -0.556175, 47.603088, -49.285568, 103.242340
1648227651.138300, 1.293916, -9.110087, 2.597110, 0.212311, -0.556101, -0.632715, 49.241425, -49.438568, 104.150543
1648227651.171686, -0.127940, -9.288305, 3.192818, 0.218569, -0.593970, -0.680008, 50.908188, -49.977066, 105.049515
1648227651.204950, 0.648380, -9.340080, 2.841917, 0.204401, -0.535932, -0.809451, 53.596237, -50.820480, 106.425095
1648227651.238298, 0.173580, -8.996213, 2.814384, 0.199607, -0.429071, -0.972884, 55.799942, -51.165375, 106.850433
1648227651.271628, -0.190189, -9.421782, 2.424578, 0.237800, -0.510593, -1.239544, 58.615448, -52.120178, 107.372849
1648227651.304988, -0.457293, -9.569474, 2.829647, 0.224157, -0.383152, -1.532346, 61.571106, -52.817276, 107.753418
1648227651.338308, -0.668431, -10.851869, 3.143886, 0.254433, -0.538418, -1.840361, 66.089569, -53.816498, 108.251724
1648227651.371652, -0.753725, -12.485313, 2.289455, 0.180301, -0.524241, -2.310628, 70.872055, -54.640350, 108.174011
1648227651.405003, -0.806247, -12.768876, 3.152116, 0.129437, -0.658389, -2.623970, 75.939163, -54.868073, 107.741364
1648227651.438285, -0.520140, -14.281263, 4.545093, 0.041972, -1.023846, -2.793948, 84.179672, -54.017517, 105.997070
1648227651.471617, -2.853589, -17.286585, 3.247136, -0.118109, -2.462871, -2.449296, 90.567841, -51.366318, 104.598053
1648227651.504983, -4.121169, -17.623270, 1.711705, 0.018420, -2.304059, -2.824030, 97.525894, -47.557968, 102.941010
1648227651.538289, -3.069067, -14.848689, 6.364387, -0.051767, 0.204636, -2.946696, 105.242950, -40.121964, 100.040787
1648227651.571620, 11.688044, -8.945935, 3.429095, 0.495881, 1.773843, -1.572573, 109.411530, -33.478836, 98.752167
1648227651.605018, 3.696198, -7.996783, 2.822764, -0.106590, -0.251377, 0.103617, 113.442719, -27.199615, 97.500305
1648227651.638366, 1.082778, -2.750788, 0.370503, -0.187292, 0.281913, 1.544942, 117.388412, -23.002747, 97.062714
1648227651.671630, 2.582446, -2.536058, 1.382053, -0.138528, 0.635458, 2.853434, 122.206375, -20.185333, 98.453201
1648227651.704960, 3.238457, -3.255067, 1.399411, -0.369240, 0.698558, 3.979952, 124.578430, -21.238861, 100.123596
1648227651.738291, 2.564938, -4.255693, 1.170765, -0.590493, 0.815124, 4.868110, 125.207382, -25.510895, 102.768173
1648227651.771623, 2.110788, -5.410148, 1.581669, -0.696126, 1.090729, 5.600832, 121.228256, -34.351608, 106.724945
1648227651.804957, 1.887080, -8.774749, 1.441010, -0.679955, 1.332076, 6.179289, 112.593613, -41.097733, 109.733017
1648227651.838348, 3.642479, -14.330344, 3.932027, -0.835034, 1.613198, 6.509509, 99.863831, -45.041458, 110.792862
1648227651.871627, 3.475184, -17.350031, 3.588908, -1.205992, 1.703935, 6.251300, 80.250488, -42.670944, 107.930634
1648227651.904957, 0.376787, -16.626533, 4.954950, -0.476609, 2.178519, 4.671413, 69.746429, -36.706680, 103.089279
1648227651.938305, 11.060015, -9.546281, 5.411195, -0.056525, -0.084781, 2.309913, 65.007599, -30.589615, 99.136490
1648227651.971630, 3.661333, -8.881441, 3.627066, 0.473815, -1.098063, -1.216796, 68.663239, -29.608749, 98.672653
1648227652.004962, 7.731925, -9.634866, 1.250073, 0.836742, 0.497341, -2.945812, 73.300934, -31.483139, 97.912521
1648227652.038292, -12.761693, -16.846950, 1.966088, 0.128798, -0.003562, -1.205820, 76.898926, -33.114914, 96.331879
1648227652.071635, 7.588123, -20.379295, 1.135450, 0.934186, 1.623438, -3.329399, 81.254044, -35.306335, 94.588425
1648227652.104962, 7.611017, -10.471340, 0.202909, 0.940673, 0.665275, -2.397546, 87.263641, -37.834641, 94.402344
1648227652.138304, -0.045191, -5.855619, 8.440608, 1.029974, 0.694035, -1.945104, 90.445160, -38.754471, 95.087265
1648227652.171676, 5.341165, -11.079467, 5.449353, 0.397956, -0.968034, -1.370763, 93.602585, -39.231873, 95.562881
1648227652.205022, 1.016638, -9.561095, 1.936909, 0.322238, -1.450181, -0.785600, 96.832535, -39.808670, 97.095718
1648227652.238292, -0.932841, -10.021380, 1.340454, 0.309905, 0.252446, -0.906233, 98.564499, -39.978546, 97.112335
1648227652.271675, 2.792537, -9.118167, 4.061464, 0.232609, -0.649495, -0.547638, 100.029663, -39.844696, 97.447678
1648227652.304968, 1.469441, -8.554931, 3.114108, 0.211218, -0.793780, -0.410686, 101.610275, -40.080643, 98.124924
1648227652.338283, 0.004339, -9.942671, 2.583344, 0.210777, -0.559975, -0.513027, 102.976089, -39.980530, 98.522537
1648227652.371634, -1.416320, -9.248801, 3.219004, 0.233697, -0.406299, -0.673888, 104.098618, -39.777237, 98.891434
1648227652.404953, 0.009128, -8.772056, 2.970456, 0.239219, -0.484597, -0.868914, 105.828522, -39.783920, 98.854935
1648227652.438290, -1.462259, -9.477298, 2.547431, 0.294447, -0.240756, -1.212759, 108.627335, -39.666000, 99.245117
1648227652.471633, 1.323694, -9.879673, 3.256264, 0.287504, -0.524077, -1.314909, 111.058289, -39.571274, 99.729553
1648227652.505068, -0.243610, -9.966164, 3.238457, 0.286639, -0.797049, -1.497068, 114.109375, -39.234665, 99.726364
1648227652.538341, -1.711705, -11.164162, 2.889801, 0.283738, -0.515808, -2.099728, 119.051300, -38.665283, 99.871475
1648227652.571687, -0.849642, -12.806585, 2.429217, 0.277784, -0.692828, -2.520004, 123.441055, -37.763077, 99.976944
1648227652.605051, -0.452803, -14.074314, 3.188328, 0.177918, -0.819931, -2.801662, 128.601913, -36.459824, 99.614502
1648227652.638335, -3.469797, -16.680253, 4.001609, 0.105077, -1.547670, -3.056850, 136.686462, -33.840240, 98.689865
1648227652.671668, -0.865803, -18.923770, 3.176806, 0.056294, -3.488283, -2.470712, 143.433548, -31.736969, 97.043823
1648227652.704993, -7.014861, -15.093945, 2.502689, 0.238164, -1.812398, -3.073346, 150.512970, -29.185593, 94.685715
1648227652.738330, 2.182913, -13.996802, 4.955399, 0.505543, -0.098238, -2.390435, 156.613739, -26.047745, 96.041702
1648227652.771682, 11.927464, -7.288698, 7.006332, 0.334594, 0.553831, -0.877417, 161.925171, -24.970139, 101.349289
1648227652.805003, 1.983895, -5.400271, 1.882291, 0.038489, -0.772143, 0.960881, 163.576736, -27.968079, 102.830200
1648227652.838361, -1.084723, -0.829591, 0.310348, 0.082404, -0.057048, 1.786832, 163.407791, -33.068939, 104.675262
1648227652.871636, 2.387468, -2.515558, 1.167473, 0.081416, 1.271700, 2.983080, 159.260468, -42.035934, 110.319229
1648227652.905029, 2.840720, -3.621978, 1.852813, -0.272346, 1.569914, 3.937342, 151.737106, -50.610809, 115.149628
1648227652.938299, 2.474108, -4.399495, 1.533337, -0.626530, 2.013035, 4.780314, 139.825760, -59.333221, 119.248596
1648227652.971631, 1.526453, -6.989572, 1.348384, -0.782632, 1.967906, 5.460452, 118.325943, -68.604874, 121.531265
1648227653.005022, 2.823362, -10.824335, 4.536563, -0.941517, 1.654077, 5.826953, 99.041214, -70.779785, 120.571609
1648227653.038297, 6.055684, -14.696208, 4.411167, -1.293264, 1.123066, 6.192129, 79.965179, -67.608902, 116.568161
1648227653.071638, 0.724994, -15.680375, 3.656395, -1.263239, 0.476042, 5.850262, 60.861649, -57.434418, 110.960449
1648227653.104967, -0.630722, -15.446342, 2.762011, -0.449431, 1.618753, 4.395554, 51.518646, -47.962463, 104.933075
1648227653.138300, 8.808418, -10.314370, 1.978059, 0.230118, 0.309002, 1.479367, 48.464996, -41.782761, 101.239532
1648227653.171632, 3.575142, -9.712827, 2.490269, 0.553762, 0.412688, -1.605202, 50.955139, -42.255646, 100.616791
1648227653.204971, 10.453982, -8.843283, 3.572897, 0.708600, 0.768056, -2.927547, 57.764801, -47.301498, 98.753403
1648227653.238298, -11.938986, -16.253337, -1.042824, 0.264373, -2.565799, -0.801988, 62.030502, -48.850449, 101.123611
1648227653.271637, 2.386121, -21.042938, 2.307262, 0.842582, 0.786358, -3.389086, 68.600082, -51.793106, 100.920410
1648227653.304961, 9.503035, -7.877372, 0.646285, 1.089760, 0.251214, -2.571883, 77.130569, -54.561264, 102.254501
1648227653.338295, 0.533608, -6.723367, 10.715549, 0.752070, -0.246138, -1.985933, 81.928146, -55.612625, 103.839569
1648227653.371548, 6.565051, -10.790517, 4.179079, 0.346983, -1.502933, -1.248513, 85.704086, -56.102798, 104.887024
1648227653.404980, 0.300472, -10.368240, 1.577629, 0.244919, -0.290450, -0.850876, 89.771011, -56.307785, 106.699905
1648227653.438327, 2.488324, -10.061034, 3.635146, 0.151921, -0.578473, -0.595603, 91.730682, -56.303513, 106.858521
1648227653.471664, 2.287360, -8.144775, 4.068347, 0.152580, -1.011184, -0.314475, 93.243500, -56.291809, 107.802536
1648227653.504998, -1.274015, -9.352350, 2.885462, 0.104458, -0.442087, -0.520001, 94.947922, -56.177979, 108.006104
1648227653.538349, -0.895282, -9.757719, 3.192668, 0.120645, -0.510292, -0.709882, 97.217987, -56.384491, 108.581253
1648227653.571689, -1.072752, -8.899696, 2.527529, 0.174121, -0.471873, -0.984228, 99.670135, -56.240936, 108.859695
1648227653.604965, -0.790535, -8.984990, 2.860323, 0.233377, -0.258058, -1.285551, 102.427170, -56.059219, 108.984650
1648227653.638303, 1.933916, -8.489241, 2.551620, 0.242453, -0.406412, -1.373513, 106.562866, -55.885513, 109.744858
1648227653.671653, 1.016788, -9.632322, 3.289035, 0.246138, -0.527625, -1.425386, 110.057739, -55.374588, 109.736465
1648227653.704982, 1.033248, -10.537480, 3.452439, 0.197592, -0.659605, -1.559248, 113.866180, -55.119110, 110.228470
1648227653.738302, -0.877774, -12.811822, 2.752883, 0.163021, -0.496546, -2.024673, 120.010574, -54.103867, 109.997345
1648227653.771636, -1.508497, -13.619416, 1.866280, 0.126332, -0.495346, -2.450835, 125.234222, -52.856369, 109.801773
1648227653.804968, -1.189020, -13.817387, 3.249381, 0.114705, -0.910089, -2.756366, 131.182907, -50.970261, 109.150070
1648227653.838314, -4.164564, -17.226879, 3.849876, 0.061981, -2.414655, -2.740972, 138.214722, -48.727158, 108.010468
1648227653.871656, -3.842544, -16.775572, 2.218677, 0.119182, -2.775120, -2.658207, 147.363998, -45.280960, 103.711716
1648227653.904972, -1.845331, -16.050429, 6.611438, -0.176181, 0.010981, -3.066060, 152.498322, -41.730164, 103.559448
1648227653.938309, 8.793155, -8.878298, 4.062212, 0.483495, 2.070326, -2.112985, 154.897705, -38.604385, 105.886063
1648227653.971642, 2.530522, -8.278252, 2.482189, -0.176650, 0.524271, -0.110149, 154.041870, -37.343231, 109.789734
1648227654.004973, 2.828450, -2.966416, 1.444302, -0.350156, 0.844470, 1.228655, 151.000366, -39.041260, 111.827164
1648227654.038306, 3.082834, -1.875258, 1.533785, -0.573671, 0.519513, 2.591808, 146.633926, -42.401306, 113.765320
1648227654.071640, 2.861819, -2.336591, 1.154753, -0.762181, 0.302185, 3.588053, 137.292206, -48.403137, 115.820343
1648227654.104971, 2.226308, -3.474735, 1.654393, -0.944354, 0.512874, 4.474362, 126.885056, -52.715042, 116.955231
1648227654.138307, 1.345541, -5.138256, 1.839196, -0.977479, 1.155518, 5.319714, 113.313797, -55.024643, 117.510590
1648227654.170745, 3.202394, -9.116072, 2.550872, -1.035455, 1.225022, 5.736068, 97.913483, -53.598969, 117.418549
1648227654.205038, 5.109825, -12.368147, 2.885612, -1.199444, 1.338307, 6.161735, 79.175278, -45.058365, 115.685059
1648227654.238303, 2.375198, -15.636980, 3.360412, -1.466423, 1.800390, 6.096461, 68.607300, -34.939850, 111.910202
1648227654.271668, 0.465074, -14.939220, 3.605219, -0.735781, 2.528457, 4.842441, 62.504913, -24.497406, 107.036682
1648227654.305006, 10.466103, -14.787188, 6.879290, -0.335518, 0.768605, 3.480702, 62.730957, -13.416779, 102.812012
1648227654.338315, 6.507739, -8.223933, 5.100697, 0.058061, -1.733920, 0.053099, 68.200821, -10.751373, 104.167847
1648227654.371214, 7.887847, -7.950096, 1.293467, 0.988129, -0.295157, -2.822447, 74.107224, -11.333893, 104.979858
1648227654.405010, 0.296133, -14.864102, 4.395904, -0.102886, -0.459813, -1.765249, 81.683228, -12.102829, 106.056946
1648227654.437735, -16.469414, -18.127698, -4.471920, 0.583800, 1.271772, -2.545619, 86.697632, -14.119476, 105.897522
1648227654.471673, 10.362254, -13.439402, 1.321899, 1.335052, 1.264507, -3.315836, 89.810883, -18.399368, 104.913223
1648227654.505006, 3.140295, -5.123592, 7.393444, 1.166783, 1.131683, -2.528061, 93.588623, -22.216232, 105.920029
1648227654.537707, 5.709722, -10.015694, 9.184906, 0.514079, -1.091103, -1.622618, 96.686737, -23.449158, 106.371506
1648227654.571693, 1.585560, -10.068217, 1.372775, 0.360236, -2.149148, -0.836723, 100.177246, -23.935379, 107.559860
1648227654.604544, 0.660500, -11.589881, 0.223259, 0.284637, 0.183957, -0.994763, 101.977463, -24.824249, 107.583359
1648227654.637742, 3.700239, -9.195680, 4.247912, 0.273438, -1.444530, -0.474606, 103.975204, -25.975739, 108.053436
1648227654.671724, -1.110012, -8.523508, 3.344849, 0.198518, -0.470954, -0.579699, 105.553543, -26.524445, 107.977249
1648227654.705022, 2.140416, -9.428366, 2.361431, 0.184531, -0.578296, -0.569710, 106.641266, -26.842072, 108.133972
1648227654.737759, -0.940323, -9.838672, 2.830844, 0.176586, -0.407668, -0.731676, 108.355270, -27.521072, 108.265991
1648227654.771709, 0.288352, -9.097068, 2.467973, 0.192333, -0.402732, -0.961131, 110.021027, -28.089050, 108.780838
1648227654.805019, 0.811934, -8.428039, 2.835034, 0.200973, -0.439415, -1.114250, 112.127899, -28.638382, 108.567337
1648227654.837661, 0.095918, -9.617957, 2.602647, 0.167657, -0.403978, -1.280494, 114.836761, -29.096817, 108.545502
1648227654.871713, 1.951424, -10.062231, 2.425775, 0.162583, -0.601845, -1.386906, 117.357422, -29.466919, 108.747482
1648227654.905043, -2.708590, -10.935815, 2.675371, 0.146831, -0.387184, -1.957779, 120.541275, -30.385300, 108.401001
1648227654.937919, -0.549320, -12.951883, 2.862418, 0.157634, -0.567193, -2.363796, 123.976669, -31.213760, 108.494980
1648227654.971730, -1.199794, -13.730148, 1.764227, 0.094802, -0.633017, -2.812783, 130.087173, -32.460831, 108.335312
1648227655.005040, -3.048118, -16.801460, 3.871424, -0.041918, -1.014465, -3.255029, 135.259109, -33.731827, 107.656158
1648227655.037930, -1.603367, -20.096181, 3.975871, -0.216375, -2.682066, -2.740860, 140.850723, -35.478287, 106.300613
1648227655.071709, -5.475539, -14.815619, 1.892616, 0.146695, -1.304686, -3.420804, 147.618698, -37.972809, 103.049469
1648227655.105058, -1.321450, -13.400945, 5.344307, 0.307697, 1.522870, -2.754657, 149.106308, -39.258148, 105.053070
1648227655.138244, 10.540323, -8.628254, 6.007052, 0.123008, 1.996261, -1.351400, 147.643402, -40.387589, 107.675018
1648227655.171402, 0.939126, -5.510405, 2.896685, -0.280852, 1.038516, 0.204517, 142.096680, -43.584732, 108.092636
1648227655.205040, 2.011129, -2.027440, 2.546533, -0.511229, 0.845824, 1.443728, 135.612183, -46.098358, 107.349976
1648227655.238267, 4.175338, -2.693627, 2.430414, -0.875466, 0.721097, 3.042877, 127.090591, -48.316345, 105.127304
1648227655.271695, 3.441366, -2.513912, 2.158522, -1.115299, 0.397592, 4.062485, 114.132492, -49.821838, 101.187683
1648227655.305017, 2.521244, -3.232771, 1.633145, -1.208876, 0.317688, 4.940275, 102.955627, -47.935196, 97.297653
1648227655.338193, 2.053178, -5.647473, 1.562366, -1.006351, 0.733855, 5.815442, 91.634827, -43.160873, 94.618378
1648227655.371591, 3.537583, -8.981399, 2.953248, -0.947131, 0.617669, 6.271828, 82.026367, -35.129639, 91.245270
1648227655.404917, 6.036531, -13.416508, 2.871695, -0.957196, 0.541506, 6.659653, 73.644608, -21.841873, 88.201859
1648227655.437468, 3.130119, -15.923835, 3.413832, -1.041481, 0.767913, 6.230092, 71.530228, -12.136429, 85.883179
1648227655.471593, 1.523760, -16.303466, 3.389741, -0.508977, 2.049415, 4.489048, 72.300690, -4.787033, 83.745804
1648227655.504922, 11.116578, -12.399570, 5.756259, -0.190290, 0.076193, 2.284605, 75.384323, 0.257675, 82.714432
1648227655.537478, 5.428852, -7.682694, 4.980388, 0.590653, -1.709106, -1.269763, 78.026306, -0.164383, 84.692780
1648227655.571595, 7.996334, -11.313201, 1.760337, 0.634272, -0.556258, -2.990604, 81.143402, -1.762161, 85.386032
1648227655.604913, -25.279328, -16.308105, -7.349451, 0.312996, 0.252327, -1.298783, 84.679291, -3.256027, 86.245239
1648227655.637453, 5.693561, -17.181689, 0.553659, 1.089725, 2.705427, -3.601860, 87.014526, -5.643890, 85.524673
1648227655.671584, 6.526444, -10.250176, 2.894440, 1.108394, 0.648714, -2.597750, 89.209274, -7.928314, 85.935928
1648227655.704908, 2.917484, -5.050269, 10.850372, 0.859795, -0.294612, -1.930179, 91.013458, -9.028900, 86.687317
1648227655.737471, 4.971859, -11.162965, 4.570980, 0.251758, -2.062064, -1.164383, 92.881058, -9.845322, 88.348007
1648227655.771578, -2.903718, -10.916811, 1.257255, 0.292510, 0.041972, -0.982407, 94.046539, -10.284225, 89.201065
1648227655.804919, 1.894711, -9.893440, 2.596512, 0.296386, -0.085575, -0.776673, 94.774841, -10.940414, 89.181076
1648227655.837413, 2.732832, -8.730157, 4.217685, 0.284803, -1.232979, -0.422314, 96.179108, -11.224991, 90.211533
1648227655.871529, -0.827047, -8.439561, 2.919729, 0.162651, -0.272188, -0.496635, 96.561371, -11.584869, 90.757507
1648227655.904832, 0.592864, -9.606435, 3.214964, 0.187190, -0.626202, -0.526458, 97.141724, -11.664978, 90.681839
1648227655.938316, -0.459387, -8.819940, 2.083404, 0.198380, -0.425928, -0.745902, 98.495102, -12.164047, 91.176498
1648227655.971506, -1.172111, -8.312219, 2.468123, 0.267743, -0.124344, -1.085903, 99.512665, -12.388702, 91.495300
1648227656.004808, 1.886631, -9.941174, 2.410811, 0.321299, -0.414504, -1.164508, 100.394699, -12.357407, 92.107117
1648227656.038317, 0.823456, -9.851541, 2.304569, 0.286494, -0.534427, -1.317248, 102.510391, -12.766998, 92.520523
1648227656.071460, -0.935235, -9.357588, 3.734655, 0.335177, -0.540504, -1.552564, 104.281982, -12.646378, 93.319031
1648227656.105002, -1.079037, -11.377695, 2.904616, 0.341203, -0.698641, -2.115162, 106.428970, -12.926056, 93.448700
1648227656.138353, -0.987010, -13.387478, 2.924068, 0.313449, -0.662615, -2.533144, 109.155670, -12.941772, 94.448822
1648227656.170810, -0.363919, -14.298472, 3.660884, 0.253243, -1.063385, -2.742643, 113.684296, -12.698883, 95.045898
1648227656.204100, -2.738518, -16.991649, 3.159448, 0.007939, -1.694278, -2.878213, 118.217178, -12.528992, 95.670700
1648227656.238391, -2.942773, -18.644097, 2.042703, -0.082617, -3.005350, -2.538368, 123.442612, -12.208435, 95.270142
1648227656.270842, -4.731391, -15.158439, 3.293673, 0.141718, -1.237835, -3.069077, 130.855270, -11.123886, 95.102539
1648227656.304162, 1.974319, -10.001927, 4.300585, 0.511687, 0.094414, -2.142612, 135.660004, -10.138824, 95.838943
1648227656.338326, 11.767950, -7.529764, 7.657405, -0.083118, 0.469460, -0.819495, 139.033173, -10.175385, 97.563766
1648227656.371657, 1.693299, -5.633706, 0.636409, -0.290505, -0.811677, 1.080071, 142.890793, -13.813400, 96.620483
1648227656.405009, 0.506374, -1.002871, 1.062128, -0.068128, 0.065075, 2.319745, 144.279709, -18.129013, 96.823090
1648227656.438334, 3.390938, -2.531419, 1.402254, -0.111316, 0.895340, 3.369310, 143.436569, -23.625427, 98.356552
1648227656.471656, 2.372504, -3.500024, 1.504008, -0.355216, 0.982337, 4.398041, 140.775070, -30.168640, 98.928696
1648227656.504987, 1.972523, -4.701913, 1.085322, -0.569591, 1.244185, 5.094440, 132.658585, -39.830292, 100.440140
1648227656.538336, 0.850241, -8.210615, 2.007987, -0.912597, 1.074614, 5.907525, 123.566208, -46.765503, 100.330414
1648227656.571666, 2.377442, -11.186608, 2.745551, -0.846001, 1.094484, 6.213761, 111.745285, -52.153549, 99.921219
1648227656.604224, 3.815310, -16.128390, 4.768352, -1.056858, 1.248817, 6.374010, 92.574402, -54.815781, 97.723511
1648227656.638336, 2.899977, -17.120487, 3.907936, -0.454666, 0.630659, 5.747808, 78.130920, -52.114044, 95.991638
1648227656.670999, 5.899762, -16.327707, 6.669348, -0.526566, 0.564905, 4.416406, 65.776764, -46.943481, 94.249603
1648227656.704260, 4.224718, -4.444985, 2.309507, 0.564596, -0.916135, 0.035540, 60.210785, -43.561279, 94.228195
1648227656.738324, 7.813028, -9.321675, -0.502633, 1.066222, 0.343355, -3.250800, 61.896500, -45.894104, 96.185425
1648227656.770935, -7.718158, -16.152631, 4.146458, 0.194907, 1.309569, -2.114647, 64.262131, -48.976425, 95.843216
1648227656.804243, 1.757194, -20.038869, -4.695927, 0.728016, 1.837458, -3.401296, 65.828217, -51.271912, 94.141983
1648227656.838403, 6.217143, -12.373833, 1.616385, 1.229864, 0.762054, -3.015699, 71.365799, -55.060410, 94.871521
1648227656.870783, 5.098752, -5.384410, 6.878242, 1.134286, -0.117090, -2.069907, 74.938385, -57.081512, 96.300217
1648227656.904117, 4.979491, -11.211747, 8.312070, 0.390749, -2.026931, -1.203549, 78.148407, -57.844727, 98.168732
1648227656.937783, -1.618630, -10.211420, 1.423503, 0.321396, -0.712342, -1.095134, 81.565353, -58.708618, 100.310303
1648227656.970800, 5.304204, -10.341604, 2.741211, 0.241243, -0.492494, -0.753582, 83.027817, -59.016495, 100.737213
1648227657.004061, 1.308581, -8.724620, 4.100819, 0.180101, -1.100762, -0.395421, 84.772263, -59.367355, 101.766907
1648227657.038330, 0.035763, -9.878027, 2.790592, 0.087378, -0.395163, -0.442109, 86.066574, -59.516388, 102.744080
1648227657.070775, -0.644190, -9.493907, 3.202993, 0.126099, -0.624173, -0.497844, 87.237656, -59.726669, 103.169556
1648227657.105000, -0.894833, -9.296086, 2.825008, 0.126864, -0.412432, -0.704767, 88.697235, -59.742111, 103.254089
1648227657.138349, 0.824952, -8.455871, 3.239654, 0.077681, -0.423669, -0.877978, 91.020157, -60.329407, 103.522919
1648227657.171666, -1.071555, -9.305963, 3.121141, 0.146002, -0.323266, -1.094694, 93.179565, -60.782669, 104.198166
1648227657.205004, 2.268656, -9.781212, 2.163760, 0.125312, -0.403938, -1.187995, 95.464340, -60.964966, 104.358429
1648227657.238400, -0.252439, -8.448689, 2.665944, 0.159523, -0.367611, -1.377869, 98.034775, -61.197342, 104.751358
1648227657.271657, -0.020800, -10.787824, 3.218406, 0.177323, -0.308762, -1.806915, 101.943375, -61.466232, 105.251831
1648227657.304995, -0.676961, -12.175114, 1.905934, 0.192575, -0.383800, -2.171814, 105.567169, -61.435883, 105.200882
1648227657.338331, -0.865504, -12.972982, 2.222268, 0.111328, -0.190614, -2.549370, 109.625214, -61.444305, 105.374954
1648227657.371655, -0.555156, -13.845967, 4.325724, 0.099006, -0.885399, -2.875786, 116.004898, -60.630310, 104.912048
1648227657.404643, -3.093907, -18.006192, 3.143736, 0.183487, -2.290846, -2.641357, 121.115402, -59.580399, 104.229935
1648227657.438325, -0.006883, -18.318336, 2.164807, -0.060235, -4.403966, -1.769657, 125.663162, -58.523499, 102.093872
1648227657.471671, -0.123750, -13.169157, 3.714903, 0.062679, -1.226735, -3.098539, 130.985245, -55.866180, 100.360947
1648227657.504999, 2.333000, -9.424176, 4.325425, 0.615638, 0.761551, -1.931951, 131.874298, -53.261383, 101.983414
1648227657.538326, 3.840449, -7.722348, 4.115932, 0.180209, 0.430907, -0.539135, 129.856979, -51.744019, 103.367340
1648227657.571663, 1.360804, -4.264073, 0.422726, -0.004298, 0.412196, 0.892560, 125.818069, -50.908020, 103.569702
1648227657.604998, 3.097947, -3.103334, 1.360355, -0.199774, 0.635392, 2.188298, 117.187881, -50.031998, 103.496674
1648227657.638334, 2.984522, -2.808099, 1.458218, -0.439782, 0.982600, 3.325670, 108.327316, -48.774902, 103.175903
1648227657.671665, 1.786523, -3.832967, 1.132008, -0.660400, 1.386296, 4.252664, 98.395126, -46.258728, 101.436569
1648227657.705005, 1.886930, -5.506065, 1.712453, -0.894755, 1.772478, 5.106327, 84.469681, -39.296722, 98.103149
1648227657.738352, 1.939902, -8.100033, 2.111536, -1.127465, 1.408706, 5.707476, 75.342224, -30.875641, 94.434082
1648227657.771682, 2.428020, -11.045949, 2.380585, -0.993008, 1.248568, 6.242200, 68.729630, -20.191635, 91.181595
1648227657.805014, 2.576460, -17.808072, 4.087950, -0.897672, 1.916975, 6.073530, 65.680756, -5.107666, 86.014481
1648227657.838336, 3.265691, -15.975460, 3.582923, -0.690285, 1.865327, 4.868196, 67.423065, 3.766495, 82.272278
1648227657.871669, 6.590639, -14.898219, 5.963507, -0.271764, 1.910088, 3.497435, 70.439407, 9.485504, 78.905060
1648227657.904998, 7.660398, -8.306832, 5.249138, 0.254210, -0.666466, 0.631231, 74.421143, 11.576691, 77.714340
1648227657.938343, 8.541165, -9.100361, 2.811691, 0.923249, -0.315985, -2.601089, 76.222794, 10.262665, 77.019287
1648227657.971667, -3.959411, -17.195755, 3.004873, -0.230461, -1.167528, -1.835442, 77.950150, 8.600891, 76.779785
1648227658.005006, -6.918794, -19.390340, -6.999748, 0.877854, 2.341692, -3.398668, 79.713852, 6.810623, 75.870010
1648227658.038334, 8.180688, -10.207679, 2.723554, 1.518004, 1.786090, -3.023497, 82.538635, 3.620712, 73.644913
1648227658.071670, 3.842843, -5.662586, 10.205135, 1.138117, 0.113498, -2.092019, 83.923843, 2.278961, 73.205139
1648227658.105008, 9.142558, -11.177330, 6.463746, 0.436645, -2.468374, -1.148440, 84.355347, 1.175049, 74.631058
1648227658.138340, -4.659416, -10.689961, 1.028160, 0.371167, -0.223082, -0.952486, 85.110748, 0.482758, 76.190475
1648227658.171666, 1.980903, -9.815928, 1.911471, 0.357591, 0.569530, -0.918047, 85.888138, -0.004517, 76.005310
1648227658.205016, 3.318214, -9.107992, 5.016601, 0.270876, -1.423099, -0.394646, 86.250809, -0.300293, 76.637314
1648227658.238398, -2.002899, -9.068338, 1.975366, 0.201065, -0.114894, -0.565621, 86.607117, -0.716736, 77.320587
1648227658.271671, 1.234510, -9.888053, 2.995296, 0.212886, -0.514638, -0.590189, 86.981339, -1.111664, 77.664688
1648227658.305003, -1.075445, -9.287108, 2.818574, 0.215250, -0.439833, -0.737746, 87.639343, -1.202118, 78.154404
1648227658.338351, 0.233884, -8.981548, 2.478597, 0.236059, -0.259396, -0.937057, 88.342590, -1.560135, 78.127213
1648227658.371672, -0.289848, -8.899696, 2.525434, 0.298639, -0.246950, -1.204399, 89.149948, -2.170624, 78.560577
1648227658.405002, 1.354220, -9.302072, 3.009362, 0.298997, -0.260321, -1.299566, 90.273392, -2.431274, 78.549927
1648227658.438337, 1.527650, -9.710583, 3.293075, 0.282466, -0.571939, -1.343363, 91.504501, -2.554672, 78.740662
1648227658.471667, -1.132906, -10.869676, 2.793285, 0.261434, -0.631566, -1.767247, 93.111740, -2.956924, 79.139099
1648227658.505021, -0.609474, -12.623129, 2.575562, 0.242432, -0.655338, -2.195919, 95.215027, -3.173004, 79.966415
1648227658.538333, -1.607108, -13.149554, 2.813935, 0.158846, -0.731676, -2.606246, 98.022583, -3.208740, 80.530533
1648227658.571669, -1.711555, -16.078710, 4.137929, 0.001182, -1.009469, -2.954092, 103.282944, -2.358231, 81.835190
1648227658.605030, -2.441786, -17.713351, 3.446453, -0.123864, -2.345196, -2.594517, 108.501129, -1.119156, 83.278580
1648227658.638352, -4.129250, -18.441937, 1.930774, -0.095090, -2.887995, -2.503819, 116.214340, 0.068054, 85.042542
1648227658.671673, -1.746271, -12.564172, 5.389797, 0.289307, 0.455410, -2.510153, 125.390137, 1.397110, 87.258575
1648227658.705008, 11.621455, -8.281843, 2.373851, 0.587942, 1.416902, -1.459618, 137.970047, 0.943375, 93.528412
1648227658.738351, 4.422090, -7.416937, 2.636166, 0.018122, -0.496279, 0.056337, 145.971725, -3.233704, 98.715927
1648227658.771689, 1.254562, -1.949030, 0.357335, -0.152817, 0.120916, 1.850165, 151.641205, -11.197845, 103.481247
1648227658.805008, 1.805378, -2.380884, 1.397914, -0.162665, 0.585762, 2.800010, 153.987030, -26.414871, 110.738586
1648227658.838400, 2.748544, -2.901473, 1.537077, -0.333592, 0.854124, 3.896172, 149.692917, -40.695435, 116.015305
1648227658.871671, 2.485181, -4.071639, 1.532139, -0.571423, 0.894002, 4.751662, 138.617386, -55.590881, 120.798187
1648227658.905004, 1.408239, -6.144419, 1.995268, -0.816737, 0.933002, 5.691715, 111.471420, -71.885117, 124.138199
1648227658.938341, 1.296311, -9.174281, 1.433678, -0.777981, 1.197814, 6.124412, 82.484756, -75.073441, 124.061737
1648227658.971343, 3.752911, -13.437606, 3.604770, -0.730717, 1.379223, 6.436727, 50.691254, -64.835526, 119.905334
1648227659.005015, 3.462764, -16.830340, 3.138200, -0.945940, 1.274537, 5.902244, 20.082901, -30.315094, 108.130936
1648227659.038352, 2.120365, -14.657452, 3.806182, -0.482312, 1.729205, 4.849974, 13.717865, 0.201447, 97.890717
1648227659.071676, 7.836372, -14.388853, 6.498312, -0.228342, 0.849966, 2.846489, 19.271423, 23.565201, 89.181946
1648227659.105013, 4.068497, -8.559570, 3.701885, 0.764311, -0.841349, -1.617754, 27.272812, 33.821945, 87.238846
1648227659.138351, 6.871808, -10.112659, 2.195782, 0.864976, 0.123577, -2.912637, 33.641632, 36.318130, 81.014160
1648227659.171687, -13.699472, -19.025224, -2.642899, 0.077789, 0.513647, -1.729870, 38.680161, 36.848938, 76.685776
1648227659.205014, 8.948478, -14.605678, 2.025794, 1.300086, 1.689311, -3.420604, 43.239487, 33.971237, 70.444824
1648227659.238423, 6.099827, -10.245986, 3.120094, 1.343373, 1.203435, -2.731503, 47.241333, 28.718460, 65.751221
1648227659.271677, 3.100491, -7.354838, 10.494684, 0.920173, -0.271199, -2.000827, 49.218460, 25.776672, 64.829361
1648227659.305040, 7.000047, -9.541343, 5.913229, 0.395947, -2.308608, -1.214599, 49.662628, 23.549149, 67.801529
1648227659.338343, -2.437297, -11.098172, 0.976535, 0.327612, -0.139635, -1.035754, 50.407486, 21.537003, 70.578705
1648227659.371676, 2.636914, -9.435549, 2.537405, 0.314549, 0.170126, -0.872838, 51.456787, 19.927338, 69.817520
1648227659.405018, 3.920206, -8.429834, 4.924574, 0.238567, -1.485337, -0.331111, 51.542114, 19.072464, 71.808334
1648227659.438368, -1.739687, -9.392603, 2.587234, 0.176756, -0.347618, -0.487024, 51.774933, 18.414871, 73.693344
1648227659.471721, 1.179294, -9.712378, 2.760066, 0.197722, -0.581303, -0.554642, 52.399506, 17.330093, 74.584824
1648227659.505019, -0.557550, -9.402479, 3.040786, 0.184326, -0.526751, -0.665344, 52.910980, 16.286453, 75.191559
1648227659.538401, -0.152032, -8.614338, 2.796727, 0.183682, -0.545285, -0.922050, 53.620270, 15.301041, 76.256516
1648227659.571680, -1.048211, -9.457246, 3.028366, 0.206551, -0.286787, -1.139858, 54.630432, 13.442581, 76.860825
1648227659.604533, 1.291373, -8.888773, 2.178275, 0.234944, -0.387484, -1.310028, 55.774826, 12.152359, 77.043167
1648227659.638347, 0.474800, -10.087520, 3.089119, 0.238656, -0.443277, -1.523224, 56.904434, 10.933548, 77.478729
1648227659.671680, -0.178817, -11.145158, 3.214515, 0.218681, -0.700767, -1.832583, 59.154694, 8.527405, 78.256104
1648227659.705013, -1.907730, -11.756727, 2.365771, 0.245154, -0.524765, -2.288273, 61.690109, 6.246368, 79.083176
1648227659.738351, 0.395343, -13.640066, 3.541174, 0.159615, -0.739882, -2.606761, 65.020920, 4.021683, 79.836014
1648227659.771724, -2.948160, -16.500688, 3.915118, 0.038850, -1.222421, -2.994393, 71.304199, 0.893402, 81.835968
1648227659.805022, -2.656367, -17.621474, 2.364723, -0.077546, -2.792021, -2.646330, 77.767868, -0.778046, 84.180206
1648227659.838356, -6.029348, -18.696620, 1.519121, -0.123755, -2.473064, -2.894925, 85.609039, -2.014114, 86.566284
1648227659.871697, -1.378761, -12.856564, 5.032612, 0.221209, 0.956467, -2.636671, 93.901352, -2.955215, 86.392105
1648227659.904093, 13.009344, -7.807791, 4.451120, 0.056489, 1.994205, -1.415859, 103.810883, -4.342148, 86.479980
1648227659.938362, 3.219453, -6.793398, 2.473360, -0.300182, 0.286767, 0.357388, 109.697357, -7.386124, 87.016464
1648227659.971679, 2.279430, -1.501015, 1.851616, -0.440564, 0.237080, 2.010325, 113.423721, -10.861786, 87.352020
1648227660.005046, 2.322825, -2.048838, 1.446996, -0.533046, 0.667789, 3.095009, 114.264114, -16.186569, 86.610565
1648227660.038378, 2.984821, -2.992004, 1.555483, -0.722771, 0.740652, 3.994246, 112.465881, -19.984161, 85.364639
1648227660.071682, 0.986860, -4.799177, 1.899500, -0.872101, 0.974280, 5.183430, 108.750046, -22.901474, 83.254547
1648227660.105019, 1.719336, -7.265654, 1.665915, -0.821451, 1.420945, 5.445526, 102.046982, -24.207565, 78.452438
1648227660.138378, 4.055628, -10.283545, 4.408922, -1.012527, 0.785922, 6.017280, 97.026733, -23.147797, 74.254959
1648227660.171688, 4.258537, -14.368652, 3.638588, -1.011376, 0.483135, 6.399210, 92.956757, -20.081421, 69.641235
1648227660.205038, 0.749385, -14.974983, 2.776226, -0.745450, 1.020920, 5.927298, 90.938934, -16.896606, 65.775650
1648227660.238427, 1.136049, -16.052075, 4.825364, -0.270150, 1.623901, 4.733275, 91.321915, -14.589172, 62.140518
1648227660.271705, 9.524284, -11.863868, 5.730372, -0.171774, -0.279275, 2.617500, 91.527481, -14.833954, 61.698730
1648227660.305025, 4.571878, -9.150339, 2.127398, 0.690477, -0.946837, -1.716736, 92.569092, -17.535721, 63.575439
1648227660.338378, 6.411822, -9.840318, 1.829020, 0.795136, 0.439437, -2.969996, 97.010300, -22.238693, 64.760834
1648227660.371702, -17.611298, -20.440048, -4.756830, 0.162357, -0.242947, -1.483531, 99.969986, -24.822388, 65.892349
1648227660.405019, 7.001244, -15.597476, 3.878307, 1.242998, 1.656764, -3.715129, 105.029556, -26.757904, 68.309860
1648227660.438353, 8.123227, -6.633884, 3.511845, 1.189687, 1.914872, -2.732667, 110.674057, -28.725861, 72.057953
1648227660.471715, 5.836016, -7.970447, 11.088595, 0.773988, -0.694942, -1.867869, 113.096756, -29.262299, 73.954956
1648227660.505023, 1.856853, -8.501212, 3.020435, 0.407610, -3.056393, -0.776460, 113.903122, -29.751877, 74.620712
1648227660.538357, -2.965817, -11.027992, 1.311723, 0.321695, 0.321175, -1.088181, 114.963623, -29.888535, 75.275208
1648227660.571686, 2.782062, -9.312547, 2.478597, 0.341933, 0.173007, -0.894955, 115.921555, -29.895615, 76.189392
1648227660.605041, 1.534234, -8.326136, 4.096778, 0.193533, -1.209782, -0.437124, 116.700592, -30.072632, 76.491791
1648227660.638364, -0.896329, -9.145102, 2.469769, 0.158516, -0.063381, -0.586307, 116.941986, -30.183655, 77.131088
1648227660.671686, 1.910872, -10.058789, 3.255516, 0.158163, -0.560596, -0.497431, 117.839096, -30.293304, 77.481003
1648227660.705028, -0.119560, -9.297882, 3.137601, 0.134484, -0.595702, -0.581899, 118.470169, -30.417740, 77.763779
1648227660.738373, 0.416292, -9.074324, 2.998139, 0.140487, -0.394654, -0.804107, 119.138046, -30.555145, 78.197098
1648227660.771711, -0.211438, -8.934113, 2.397344, 0.192146, -0.418046, -0.999690, 120.530045, -30.345306, 78.619110
1648227660.805032, -0.468366, -9.393949, 2.422932, 0.214086, -0.161586, -1.277211, 122.081863, -30.370132, 79.386124
1648227660.838080, 1.307683, -10.029909, 2.902820, 0.232079, -0.557581, -1.485509, 123.770370, -30.005249, 80.033127
1648227660.871769, -2.634669, -10.860697, 3.066374, 0.228747, -0.595638, -1.948889, 126.548935, -29.955551, 81.022034
1648227660.905048, -2.153285, -12.818256, 2.513164, 0.258483, -0.670250, -2.538562, 129.376297, -29.455292, 82.339645
1648227660.938370, -0.525677, -14.675409, 3.122638, 0.183024, -0.950742, -2.993465, 132.556854, -29.072205, 83.158585
1648227660.971759, -2.543091, -16.669330, 3.872023, 0.086145, -1.335902, -3.168095, 135.770050, -28.390457, 84.532013
1648227661.005028, -1.034145, -19.332879, 3.717896, -0.154796, -3.154424, -2.542362, 139.206894, -28.729233, 84.540222
1648227661.038430, -4.677073, -14.075362, 3.278261, -0.076687, -1.198463, -3.200413, 141.353516, -29.272034, 83.695526
1648227661.071713, -1.131260, -10.830919, 4.871303, 0.345647, 1.002049, -2.557676, 142.660141, -29.314301, 86.046432
1648227661.105029, 13.284976, -7.763349, 5.669021, -0.006098, 2.088389, -1.107339, 140.927292, -30.395264, 90.071457
1648227661.138367, 2.750938, -6.593033, 1.660229, -0.359969, 0.107809, 0.690265, 137.189545, -32.185715, 90.086807
1648227661.171694, 2.704550, -1.260398, 1.486201, -0.331219, 0.125853, 2.073405, 132.195694, -34.092270, 88.825714
1648227661.205025, 4.486435, -2.666991, 1.650652, -0.520147, 0.387625, 3.087065, 124.347031, -35.428970, 86.525681
1648227661.238454, 2.675520, -3.115455, 0.807145, -0.695450, 0.312672, 4.178225, 117.366989, -35.720322, 84.499573
1648227661.271699, 1.533785, -3.985149, 0.736816, -0.763618, 0.455722, 5.216475, 110.468765, -34.435913, 81.554459
1648227661.305068, 1.472733, -6.541857, 1.294814, -0.822597, 0.871900, 5.883956, 103.689575, -31.552032, 78.887955
1648227661.338361, 0.553210, -9.709086, 0.843507, -0.765235, 1.401528, 6.483259, 97.379440, -25.646500, 74.740189
1648227661.371705, 3.731812, -17.588853, 5.354482, -0.789502, 1.658737, 6.396153, 94.981613, -21.688751, 72.629715
1648227661.405029, 3.605817, -18.247109, 3.204789, -0.957984, 1.432829, 5.595161, 93.790298, -20.113190, 71.290039
1648227661.438362, 4.466383, -14.440927, 4.693982, -0.440040, 1.382926, 4.285905, 91.477722, -20.227676, 70.653931
1648227661.471693, 8.205977, -6.851906, 4.711340, 0.287608, -1.844480, 0.208442, 90.072693, -21.181656, 71.445908
1648227661.505090, 5.084087, -8.954613, 2.728791, 0.847769, -1.043026, -2.469462, 91.060638, -23.570923, 72.840729
1648227661.538361, 2.580650, -13.119776, 4.292055, 0.137376, -0.257084, -2.552530, 94.279236, -26.783295, 73.849579
1648227661.571694, -5.985654, -15.850812, -4.950461, 0.733981, 3.361490, -3.342788, 96.149628, -28.848587, 74.530273
1648227661.605033, 10.860099, -13.127108, 1.489044, 1.572236, 2.510570, -3.220669, 99.914474, -31.010208, 76.193527
1648227661.638383, 7.321918, -9.765200, 6.639121, 1.188346, 1.064438, -2.439293, 103.213913, -32.290237, 79.350464
1648227661.671704, 6.035034, -7.810335, 9.605238, 0.699040, -1.784420, -1.553164, 105.309921, -32.930328, 80.581696
1648227661.705074, -2.111836, -11.301380, -0.840514, 0.446077, -1.547536, -1.010931, 106.610016, -33.431702, 81.376770
1648227661.738364, -2.017414, -10.354024, 0.339977, 0.410033, 1.061767, -1.173749, 107.596603, -33.339432, 82.245026
1648227661.771697, 6.365883, -9.421034, 4.736479, 0.333377, -1.100787, -0.575397, 108.855255, -33.664551, 83.272064
1648227661.805042, -1.581819, -8.565855, 2.766799, 0.211211, -0.513300, -0.483953, 109.405075, -33.519989, 83.387985
1648227661.837816, 1.055993, -9.900174, 2.831592, 0.181049, -0.390963, -0.513778, 109.846161, -33.725586, 83.681732
1648227661.871700, -0.354342, -9.455002, 3.363704, 0.166649, -0.662339, -0.546475, 110.757339, -33.800552, 84.300583
1648227661.905038, -0.278924, -8.575432, 2.628085, 0.172699, -0.479199, -0.866196, 111.995270, -34.116119, 84.490234
1648227661.938373, -1.524209, -8.882488, 2.913145, 0.265211, -0.174571, -1.117571, 113.281158, -34.149704, 85.076584
1648227661.971697, 1.446996, -9.554361, 2.810493, 0.248815, -0.273674, -1.248983, 114.936142, -34.056854, 85.513885
1648227662.005038, 1.452532, -9.744700, 2.958485, 0.233795, -0.564844, -1.310200, 116.913315, -34.093277, 85.882629
1648227662.038367, 0.207098, -10.409241, 3.390339, 0.215164, -0.592665, -1.498184, 118.613342, -34.049500, 86.365845
1648227662.071699, -1.355567, -11.409119, 3.038691, 0.187688, -0.578939, -1.894118, 120.704315, -33.694534, 86.810715
1648227662.105059, -1.870171, -12.080693, 2.232892, 0.209952, -0.485979, -2.400657, 124.534149, -33.334564, 87.647873
1648227662.138377, -0.523283, -14.731822, 3.764882, 0.083410, -0.945235, -2.838285, 127.974426, -32.665680, 88.561905
1648227662.171716, -4.010587, -16.466870, 3.998466, -0.001254, -1.466766, -3.023553, 131.843475, -32.023712, 88.967865
1648227662.205033, -1.650353, -19.771916, 3.249081, -0.031087, -3.314692, -2.594822, 137.203278, -31.418457, 87.746918
1648227662.238431, -4.411466, -14.270489, 5.102044, -0.056686, -0.658689, -3.318578, 141.513077, -30.280457, 88.007202
1648227662.271700, 2.659060, -10.891373, 3.684826, 0.536395, 0.309057, -2.210131, 144.996964, -29.288864, 89.852066
1648227662.305033, 9.841366, -7.549965, 5.843049, 0.096921, 0.652433, -0.929357, 146.756073, -30.386307, 93.809937
1648227662.338382, 1.406593, -2.944120, 0.659004, -0.055711, 0.585741, 1.253937, 145.710739, -34.005096, 95.333466
1648227662.371697, 2.613570, -1.635689, 1.936909, -0.064057, 0.602289, 2.250534, 142.266037, -39.069214, 96.756836
1648227662.405136, 2.819172, -2.340182, 1.524508, -0.275271, 0.878178, 3.483541, 132.659515, -46.354218, 97.090057
1648227662.438371, 2.831143, -3.722984, 1.656039, -0.584990, 0.876152, 4.686081, 122.218567, -50.594391, 95.984909
1648227662.471728, 1.529446, -5.251681, 1.405546, -0.741610, 1.022063, 5.420768, 109.335129, -52.401276, 93.221909
1648227662.504950, 0.942717, -7.776666, 1.944241, -0.946012, 1.162905, 5.966822, 95.697571, -50.548141, 88.660751
1648227662.538364, 1.183633, -12.379818, 2.240524, -0.864972, 1.877314, 6.162787, 79.742508, -42.458969, 80.430099
1648227662.571723, 4.222773, -19.461867, 5.302109, -1.239115, 2.210087, 6.200988, 70.869843, -33.367981, 73.474304
1648227662.605055, 4.764012, -16.187347, 3.513790, -0.972374, 1.654817, 5.258647, 66.082825, -23.328491, 67.399323
1648227662.638386, 4.777181, -13.749451, 5.239411, -0.211909, 1.338188, 4.091739, 64.907288, -11.914169, 61.674301
1648227662.671705, 5.237316, -6.434118, 4.144363, 0.264082, -0.917736, 0.193789, 66.695190, -8.494125, 60.410049
1648227662.704866, 5.735609, -9.311200, 2.087893, 0.809223, -0.037693, -2.307004, 69.072174, -9.196976, 59.777161
1648227662.738384, 7.828890, -11.447576, 5.592257, 0.254768, -0.810160, -2.397560, 72.348099, -11.677139, 58.545120
1648227662.771719, -8.729559, -18.636615, -5.077802, 0.625875, 1.516324, -3.086022, 74.950531, -12.637085, 58.924149
1648227662.805078, 9.044546, -15.356260, 1.325191, 1.247599, 1.206849, -3.285866, 79.317825, -15.614365, 58.847427
1648227662.838374, 3.750966, -4.800674, 5.628170, 1.237211, 0.971521, -2.422208, 82.852325, -17.583832, 59.362137
1648227662.871716, 4.763264, -11.280580, 7.484424, 0.392157, -1.434083, -1.609865, 85.388596, -19.654678, 60.380356
1648227662.905079, 1.602619, -9.613617, 0.741754, 0.338061, -2.419049, -0.862762, 85.617157, -20.556610, 62.577164
1648227662.938373, -1.238850, -11.293898, 1.045817, 0.277664, 0.452887, -0.983035, 86.461227, -21.455688, 63.243164
1648227662.971705, 4.219182, -8.740332, 4.029292, 0.256519, -0.755707, -0.541709, 87.720947, -22.169434, 64.183395
1648227663.005035, 1.390133, -8.687361, 3.661483, 0.180491, -1.088281, -0.356802, 87.751022, -22.398682, 65.089615
1648227663.038376, -1.781286, -9.644293, 2.478298, 0.146715, -0.311264, -0.465165, 88.186890, -22.705597, 65.637833
1648227663.071706, 1.055244, -9.734225, 3.059790, 0.127486, -0.640082, -0.530694, 88.954727, -23.189713, 66.378006
1648227663.105091, -0.942418, -9.055020, 2.866009, 0.119466, -0.521296, -0.836075, 89.533569, -23.915085, 66.579224
1648227663.138398, -1.505654, -8.764274, 2.711134, 0.185208, -0.404690, -1.074465, 90.815903, -24.630539, 67.350876
1648227663.171704, -0.461333, -9.248053, 2.801216, 0.214826, -0.296870, -1.319544, 92.261032, -25.134247, 67.227646
1648227663.205039, -0.389656, -9.979033, 2.448969, 0.243201, -0.481273, -1.564182, 94.624115, -25.418320, 68.040024
1648227663.238433, -1.324742, -10.227281, 3.266589, 0.273620, -0.331663, -1.888757, 97.019699, -26.077164, 68.698410
1648227663.271703, -0.461931, -12.008268, 2.835932, 0.260676, -0.622941, -2.247709, 100.037109, -26.330399, 69.344055
1648227663.305039, -1.447744, -14.134469, 1.770811, 0.227628, -0.671687, -2.908537, 105.334930, -26.477371, 70.140778
1648227663.338370, -2.155829, -15.551986, 4.392612, 0.083179, -0.932062, -3.260177, 110.362015, -26.231918, 71.303268
1648227663.371708, -2.646491, -17.221044, 4.228609, 0.015793, -2.124604, -3.009269, 116.372940, -25.383789, 71.970016
1648227663.405040, -5.743839, -18.728642, 1.970727, -0.103207, -3.099839, -2.701236, 124.411591, -24.503159, 72.001221
1648227663.438425, -3.196409, -14.013113, 5.390994, -0.205238, -0.222058, -2.787432, 132.403839, -23.595261, 72.784058
1648227663.471719, -1.117943, -8.266879, 1.155950, -0.154354, 0.594215, -1.241431, 139.356552, -23.834351, 74.047302
1648227663.505045, 11.218331, -6.866121, 7.824700, 0.087165, 1.491060, 0.056046, 145.970444, -27.593979, 79.700211
1648227663.538383, 3.291429, -3.207033, 2.206706, -0.291746, 1.425951, 1.372539, 147.143204, -32.906250, 83.298431
1648227663.571739, 2.459294, -0.584335, 1.067515, -0.428115, 1.106478, 2.568547, 144.340210, -39.022766, 86.081512
1648227663.605151, 4.398897, -1.890222, 1.654992, -0.730733, 0.045578, 3.944225, 138.142822, -45.611603, 86.829453
1648227663.638406, 1.775001, -3.989488, 1.052850, -0.979135, 0.307888, 5.111394, 125.169846, -52.124969, 85.505569
1648227663.671708, 1.070657, -6.582558, 1.745523, -0.981575, 0.614088, 5.669094, 113.419861, -54.029175, 84.173767
1648227663.705043, -0.231789, -6.762123, 1.177947, -0.790164, 2.132544, 6.029069, 101.416397, -52.665955, 82.856888
1648227663.738377, 3.174262, -14.443919, 3.143886, -1.030817, 2.760896, 5.751441, 88.013031, -47.446396, 80.496704
1648227663.771715, 4.530727, -18.241422, 6.420650, -1.511499, 1.386870, 5.616395, 80.042648, -42.147690, 79.355530
1648227663.805048, 6.147711, -15.945533, 6.016778, -1.399792, 0.394572, 4.803896, 73.772705, -36.807175, 79.034332
1648227663.838387, 6.574328, -10.108020, 3.643376, 0.226316, -1.339035, 1.833134, 69.600372, -32.244385, 82.261490
1648227663.871711, 2.552967, -9.096769, 2.493112, 0.562067, -0.871934, -1.043013, 70.418991, -32.705536, 85.899277
1648227663.905059, 7.195923, -8.796895, 0.657508, 1.005298, 0.949051, -2.640389, 73.692520, -35.045486, 88.397583
1648227663.938371, -14.819959, -20.295049, -4.219780, 0.391621, -0.029296, -1.517572, 76.593842, -37.350342, 89.030212
1648227663.971182, 10.503662, -16.566229, 2.321777, 1.201207, 0.445018, -3.244071, 81.826370, -40.534943, 91.608078
1648227664.004772, 2.244863, -10.132112, 1.274912, 0.974105, 0.836132, -2.554105, 86.328217, -42.824646, 93.625931
1648227664.038399, 3.314922, -5.212327, 10.460267, 1.065962, 0.848802, -2.116471, 89.592972, -43.848495, 95.186646
1648227664.071740, 6.248118, -10.195708, 4.351312, 0.198938, -2.352785, -0.977333, 93.302322, -44.887222, 97.401840
1648227664.105062, -1.780538, -10.469694, -0.573711, 0.341612, -1.522130, -0.771607, 95.725067, -45.171509, 98.603851
1648227664.138422, -1.237503, -9.677662, 0.805798, 0.369895, 0.562929, -0.841241, 97.278519, -45.422470, 99.599869
1648227664.171718, 2.844611, -9.361328, 3.708768, 0.245979, -0.960806, -0.425207, 98.920166, -45.510864, 100.213470
1648227664.205057, -1.484106, -8.836849, 3.183091, 0.209468, -0.617227, -0.524753, 100.227386, -45.529861, 101.408783
1648227664.238466, -1.554585, -9.436596, 3.049764, 0.200257, -0.168061, -0.705655, 101.535324, -45.560181, 101.649506
1648227664.271716, -1.378312, -9.188497, 3.258658, 0.223836, -0.525696, -0.856774, 104.028427, -45.644333, 102.238922
1648227664.305078, -0.420182, -9.137471, 2.385074, 0.273345, -0.382346, -1.084127, 106.017670, -45.993103, 103.366699
1648227664.338428, 0.276830, -9.635913, 2.543390, 0.287111, -0.427025, -1.262270, 108.458679, -45.962784, 104.068283
1648227664.371660, -0.973093, -9.334693, 3.545962, 0.298093, -0.428261, -1.477345, 111.471817, -45.819778, 105.075226
1648227664.405050, 2.152387, -10.362105, 3.322853, 0.302871, -0.983461, -1.578086, 116.120956, -45.467560, 105.890854
1648227664.438391, -4.747702, -11.070190, 2.091485, 0.332167, -0.591555, -2.195559, 120.361176, -44.907364, 106.924149
1648227664.471724, -0.711228, -13.478158, 2.363376, 0.375744, -0.769927, -2.680620, 126.120499, -44.259155, 108.166992
1648227664.505052, -2.390311, -15.000422, 2.632125, 0.312551, -1.225232, -3.191878, 135.349335, -42.771133, 109.855515
1648227664.538385, -3.604620, -17.540370, 3.155857, 0.198812, -2.018059, -3.207967, 143.530960, -41.619080, 110.445938
1648227664.571729, -2.644396, -19.991285, 3.294870, -0.046791, -3.688799, -2.653035, 152.643936, -41.712418, 108.927902
1648227664.604597, -2.846706, -15.105766, 5.766884, -0.292687, 0.000358, -2.962352, 162.156006, -42.780563, 109.968750
1648227664.638453, -3.141641, -9.248053, 2.932598, -0.444224, 1.058868, -1.639730, 163.914124, -46.111252, 113.967789
1648227664.671738, 12.653505, -5.884648, 10.366145, 0.068484, 3.243163, -0.821772, 159.054138, -49.892593, 121.832642
1648227664.705065, 4.112191, -2.352004, 1.925836, -0.903584, 0.440804, 1.775183, 151.720612, -55.012650, 124.233429
1648227664.738401, 0.354043, -0.214880, -0.436942, -0.904912, 0.337608, 3.336872, 137.001938, -63.044876, 124.249039
1648227664.771788, 1.912219, -2.791639, 2.017713, -0.974456, 0.504654, 4.072003, 123.430862, -66.916550, 123.206757
1648227664.805061, 2.522591, -4.877438, 2.019659, -1.328229, 0.052693, 5.324879, 107.684387, -68.849106, 122.526382
1648227664.838389, 0.279224, -6.580014, 1.584213, -1.216719, 0.419688, 6.234818, 84.220078, -65.888077, 120.658920
1648227664.871771, 1.919701, -9.405920, 1.627010, -0.850224, 1.408122, 6.183494, 65.947174, -57.513474, 119.736267
1648227664.905062, 3.068618, -15.395166, 2.852991, -0.852938, 1.978308, 6.230194, 50.564774, -43.611710, 117.052170
1648227664.938416, 2.000505, -15.843929, 3.251475, -0.954670, 1.275344, 5.640279, 39.756332, -22.616440, 111.683731
1648227664.971770, 2.378939, -15.069105, 5.407155, -0.515290, 1.562914, 4.609487, 38.318436, -9.641876, 107.930389
1648227665.005103, 9.777171, -11.564144, 5.744737, -0.125009, -0.794703, 2.048739, 40.803909, -1.975204, 107.922363
1648227665.038435, 4.190900, -10.070760, 2.597559, 0.648806, -0.979578, -1.976735, 45.519119, -1.793365, 111.681839
1648227665.071758, 4.278887, -11.020211, 3.161992, 0.767636, 0.137998, -2.898851, 49.766510, -5.950333, 113.039978
1648227665.105103, -15.438560, -19.837307, -4.821324, 0.504428, 0.040352, -2.163133, 52.587585, -9.370132, 113.377930
1648227665.138405, 7.007978, -12.105383, 3.256862, 1.443275, 1.144507, -3.521579, 54.603363, -14.415756, 111.435211
1648227665.171764, 7.751378, -6.708254, 5.674856, 1.338477, 1.214594, -2.626771, 56.646988, -18.750610, 110.370224
1648227665.205096, 5.421221, -10.483461, 7.871387, 0.608872, -0.869272, -1.845393, 59.361923, -20.900238, 111.988129
1648227665.238473, 1.059285, -10.344896, 1.255609, 0.383253, -1.777544, -0.947661, 62.964447, -22.294312, 115.628937
1648227665.271779, -1.243638, -10.354174, 0.759710, 0.334538, 0.582649, -0.961928, 65.031815, -23.414185, 116.995270
1648227665.305061, 4.144064, -9.821464, 3.091663, 0.277766, -0.395315, -0.658299, 65.886658, -23.959717, 117.287781
1648227665.338456, 1.764826, -8.336012, 4.116680, 0.206226, -0.889147, -0.371839, 67.806320, -24.036392, 119.010513
1648227665.371761, -1.152060, -9.936535, 2.343774, 0.214371, -0.278566, -0.500124, 69.485565, -24.741638, 119.779938
1648227665.405097, 0.155324, -9.293992, 3.121291, 0.227710, -0.529299, -0.588646, 70.623016, -24.966324, 120.462448
1648227665.438445, 0.040552, -8.954464, 2.943372, 0.227905, -0.445121, -0.730639, 72.229828, -25.573868, 121.887100
1648227665.471788, -0.717812, -8.690353, 2.639308, 0.278586, -0.187171, -1.017529, 73.681580, -26.090851, 122.527771
1648227665.505077, 1.481861, -9.384971, 2.737021, 0.282142, -0.400224, -1.094766, 75.913330, -26.965118, 123.250473
1648227665.538432, 0.203956, -9.364920, 2.536956, 0.290863, -0.363875, -1.275287, 78.110245, -27.577362, 123.799683
1648227665.571785, 0.207697, -10.068516, 3.729867, 0.297161, -0.630208, -1.585946, 80.291824, -28.455246, 124.602875
1648227665.605062, -1.885135, -11.807454, 3.170222, 0.319959, -0.732607, -2.044285, 85.009094, -29.629013, 125.715546
1648227665.638407, -2.107197, -13.327324, 2.184410, 0.290586, -0.678590, -2.570454, 88.947128, -30.474808, 126.844986
1648227665.671755, -0.466420, -14.142848, 3.689165, 0.195505, -1.210386, -2.951009, 94.350037, -31.499146, 128.087799
1648227665.705057, -3.999963, -17.381156, 3.761740, 0.076424, -1.796792, -3.061126, 103.111496, -32.224930, 129.282364
1648227665.738401, -1.884835, -19.075353, 3.044078, -0.103001, -3.561455, -2.506063, 111.482193, -32.304733, 129.537750
1648227665.771764, -2.985270, -14.735713, 4.472069, 0.042358, -0.327982, -3.273707, 119.202377, -31.333878, 129.546387
1648227665.805065, 2.395399, -10.132860, 4.444835, 0.439095, 0.328990, -2.143380, 122.122650, -29.717758, 130.864944
1648227665.838394, 10.242544, -7.903858, 7.145196, -0.075862, 1.071711, -0.868908, 121.462418, -28.138184, 132.711945
1648227665.871728, 2.206257, -5.429750, 1.414674, -0.331095, 0.151088, 0.924265, 119.948669, -28.289749, 132.392624
1648227665.905065, 2.442984, -1.565209, 1.718289, -0.415790, 0.340910, 2.488735, 116.057281, -28.677628, 132.049957
1648227665.938392, 2.785953, -2.457798, 1.379210, -0.534784, 0.851508, 3.653526, 108.399948, -28.074707, 131.121750
1648227665.970760, 2.208052, -3.420865, 1.592443, -0.744759, 0.871382, 4.638580, 101.464630, -26.503723, 130.064926
1648227666.005060, 1.529296, -5.039944, 0.961422, -0.818684, 1.038201, 5.523670, 94.596222, -23.418228, 128.258682
1648227666.038391, 0.918625, -8.493430, 2.268207, -0.974212, 1.080750, 6.072821, 87.342804, -16.703247, 125.577820
1648227666.071794, 1.645116, -11.838878, 1.989582, -0.803775, 1.553438, 6.337440, 83.905563, -10.573074, 122.543213
1648227666.105066, 3.696947, -18.336293, 2.804209, -1.105694, 1.971620, 6.174298, 82.296951, -6.040237, 118.925613
1648227666.138402, 3.200449, -15.760431, 4.723610, -0.924210, 1.576025, 5.173621, 82.071396, -3.433853, 113.381134
1648227666.171765, 6.613683, -14.787787, 6.984335, -0.391776, 1.386077, 3.762429, 81.763031, -2.663330, 108.749954
1648227666.205060, 5.765986, -7.150283, 5.319018, 0.541499, -1.601266, -0.706457, 83.792236, -3.199692, 106.600739
1648227666.238427, 7.747637, -9.068787, 1.846977, 1.057648, -0.535877, -2.908843, 86.286743, -4.740250, 104.888092
1648227666.271792, -1.522563, -17.767520, 2.190096, -0.353178, -1.298401, -1.831623, 89.379410, -6.656265, 102.842499
1648227666.305056, 2.931999, -19.492094, -2.933795, 0.961151, 2.433966, -3.563730, 89.411743, -8.142044, 99.333588
1648227666.338404, 7.477990, -13.617022, 3.079243, 1.256062, 1.364840, -3.039553, 89.361740, -9.175186, 96.784134
1648227666.371768, 4.808155, -3.538480, 7.977181, 1.320039, 0.691054, -2.260091, 90.270462, -9.771164, 94.792191
1648227666.405102, 4.871452, -11.731438, 7.827543, 0.433937, -1.330177, -1.510871, 91.944733, -10.323853, 94.390732
1648227666.438410, -0.192584, -10.455928, -0.960823, 0.346632, -1.455830, -0.856020, 93.648926, -10.586319, 95.509384
1648227666.471785, 0.650774, -10.976517, 1.504606, 0.306898, 0.356494, -0.773334, 94.334763, -10.774597, 95.004044
1648227666.505065, 3.011906, -8.971223, 3.643975, 0.223587, -0.356698, -0.424035, 94.803375, -10.910812, 94.949631
1648227666.538413, 1.372476, -8.798093, 3.237410, 0.160997, -1.082184, -0.187849, 95.458847, -10.825241, 95.261887
1648227666.571785, -1.898752, -9.668385, 2.629881, 0.120796, -0.375672, -0.330047, 95.997223, -10.945419, 95.567108
1648227666.605150, 0.403124, -9.324368, 3.309385, 0.114134, -0.652290, -0.387512, 96.894455, -10.855301, 95.772308
1648227666.638423, -1.631349, -9.249250, 2.707842, 0.115541, -0.551813, -0.671481, 97.603348, -11.028442, 95.416702
1648227666.671786, -1.100136, -8.899547, 2.106897, 0.205445, -0.402239, -0.996888, 98.154892, -11.075378, 95.189514
1648227666.705080, -2.071733, -9.316138, 2.010082, 0.281658, -0.202708, -1.379325, 99.656464, -11.368439, 94.806442
1648227666.738418, 0.638055, -10.036942, 2.976292, 0.318260, -0.366444, -1.629694, 100.677826, -11.419266, 94.081009
1648227666.771793, -0.218621, -10.196157, 3.190573, 0.302538, -0.525297, -1.919999, 101.945938, -11.451706, 93.549759
1648227666.805066, -2.974796, -11.488577, 3.460220, 0.251146, -0.352959, -2.375859, 104.090347, -11.385529, 92.279053
1648227666.838405, 0.170138, -14.188638, 2.631527, 0.181686, -0.709388, -2.694006, 106.094437, -11.042831, 90.921738
1648227666.871800, -1.925537, -14.995184, 3.163937, -0.017528, -0.936416, -3.131080, 108.997238, -10.932648, 89.615158
1648227666.905084, -3.609109, -16.310798, 3.259107, -0.070098, -1.823679, -3.096483, 113.654694, -10.029648, 87.036652
1648227666.938408, -4.731691, -19.103634, 2.882170, -0.053236, -2.795907, -3.013315, 117.659103, -9.142441, 84.568573
1648227666.971806, -1.666664, -14.619444, 7.140557, 0.078094, 0.899423, -3.516762, 122.045181, -7.832825, 82.417099
1648227667.005099, 11.151144, -10.057592, 4.739472, 0.200609, 0.978697, -2.063139, 126.000809, -7.437790, 81.534622
1648227667.038411, 3.668067, -8.143578, 2.413056, -0.168902, -0.532191, -0.324786, 130.328201, -9.984360, 80.100464
1648227667.071772, 2.751985, -1.542315, 1.949479, -0.279195, 0.176263, 1.456573, 131.196625, -13.150421, 78.720749
1648227667.105104, 3.387945, -2.233042, 1.914912, -0.455926, 0.588093, 2.707504, 129.752884, -16.265060, 77.288513
1648227667.138421, 2.680458, -1.973720, 1.756297, -0.637578, 0.929104, 3.840940, 125.335419, -19.932755, 74.680771
1648227667.171796, 1.908478, -4.028544, 1.701828, -0.988422, 1.188268, 5.019183, 121.393509, -20.867493, 71.760513
1648227667.205074, 1.435623, -5.278018, 1.865981, -1.090075, 1.215067, 5.630908, 117.597900, -20.183594, 68.228546
1648227667.238483, 0.831387, -7.793426, 2.249801, -1.030873, 1.538566, 6.115993, 115.845200, -19.399582, 65.035294
1648227667.271804, 3.505411, -12.642432, 3.814263, -0.980398, 1.449996, 6.473593, 115.355789, -21.353287, 63.104004
1648227667.305088, 4.744410, -15.993866, 3.076100, -1.000181, 0.797345, 6.282301, 112.585281, -25.610367, 61.866119
1648227667.338472, 0.846949, -14.570213, 3.881749, -0.478271, 1.750321, 5.016908, 107.365173, -30.341400, 61.781143
1648227667.371793, 7.381473, -16.073922, 7.513304, -0.191467, 1.835271, 3.449438, 100.139481, -35.146164, 61.734100
1648227667.405090, 4.672584, -6.272060, 3.682581, 0.697438, -1.098451, -1.133425, 97.766159, -38.203888, 62.696487
1648227667.438417, 8.235605, -9.910798, 2.158373, 1.054080, 0.219294, -3.229674, 100.366913, -42.087326, 63.682678
1648227667.471764, -10.208876, -19.255367, -0.125247, 0.083151, -1.183914, -1.360844, 103.907684, -45.679871, 64.187668
1648227667.505089, 5.729325, -18.516157, 0.357035, 1.117057, 1.455549, -3.568093, 107.955032, -48.579147, 66.386032
1648227667.538466, 5.854422, -10.696395, 1.097293, 1.178605, 1.236037, -2.935960, 112.883453, -51.082993, 69.479645
1648227667.571776, 4.455011, -5.762843, 9.739163, 1.164602, 0.228845, -2.327358, 117.761963, -52.806595, 73.115875
1648227667.605075, 6.214899, -9.037812, 4.934001, 0.404143, -2.211574, -1.214495, 120.058029, -53.146072, 73.908478
1648227667.638412, -1.118840, -10.113407, 1.760786, 0.378021, -0.740594, -1.046735, 121.437500, -53.801178, 73.928085
1648227667.671757, 2.154033, -10.682030, 1.556530, 0.306323, 0.364700, -0.935926, 123.028473, -54.231476, 75.016342
1648227667.705106, 3.218854, -8.990227, 4.466234, 0.200250, -1.025381, -0.470525, 124.242584, -54.383347, 75.478333
1648227667.738454, 0.458939, -8.608951, 3.544466, 0.143043, -0.607877, -0.412541, 124.678925, -54.412369, 75.492065
1648227667.771790, -0.146495, -9.862166, 2.720861, 0.155055, -0.443820, -0.448857, 125.280350, -54.482925, 75.829559
1648227667.805074, 0.466869, -9.245359, 2.849998, 0.169368, -0.514141, -0.529729, 126.116180, -54.875076, 76.000366
1648227667.838467, 0.359878, -8.841637, 3.254917, 0.149533, -0.544709, -0.731460, 126.988678, -54.657227, 76.360580
1648227667.871773, -0.509217, -8.714595, 2.672079, 0.195077, -0.557423, -0.934945, 128.212784, -54.932831, 76.350540
1648227667.905080, -0.211288, -9.640103, 2.746897, 0.203301, -0.470913, -1.150388, 130.687164, -55.054932, 76.911514
1648227667.938417, -0.904709, -10.279654, 2.867206, 0.221852, -0.469576, -1.466736, 133.025330, -55.117554, 76.811096
1648227667.971836, -0.278625, -10.951527, 2.680608, 0.221775, -0.542085, -1.829198, 135.830460, -55.043701, 77.406891
1648227668.005089, -0.550666, -12.544719, 2.498349, 0.219681, -0.617747, -2.222466, 140.520264, -55.146164, 78.100906
1648227668.038419, -2.432359, -13.991415, 2.698565, 0.139787, -0.733806, -2.791680, 144.259277, -54.554977, 78.513870
1648227668.071820, -2.675221, -16.068684, 4.304475, 0.000292, -1.187307, -3.068365, 148.507294, -54.027908, 78.183533
1648227668.105085, -3.013552, -16.821811, 2.567332, -0.074051, -2.617787, -2.820778, 152.034653, -53.726547, 76.854828
1648227668.138418, -6.923732, -15.796194, 2.416647, 0.134477, -0.878204, -3.560430, 156.308731, -53.886093, 74.553757
1648227668.171745, 1.037138, -13.354707, 4.944026, 0.382939, 0.464726, -2.779007, 159.317383, -53.198441, 76.235397
1648227668.205084, 12.959963, -8.306683, 4.952107, 0.103930, 1.225908, -1.675984, 159.655045, -53.235870, 80.010178
1648227668.238480, 1.550844, -6.958149, 1.141885, -0.090391, -0.175753, 0.068029, 156.153305, -55.141159, 81.518661
1648227668.271796, 2.565986, -1.758242, 2.293944, -0.237640, 0.594994, 1.564111, 150.850906, -57.706467, 82.265091
1648227668.305091, 3.117999, -2.088941, 1.455974, -0.523931, 1.226149, 2.873311, 143.702194, -60.686890, 83.215576
1648227668.338444, 4.250456, -2.044349, 1.550246, -0.789835, 1.282266, 3.943883, 130.755219, -64.894104, 83.475418
1648227668.371754, 1.964143, -3.687220, 1.608604, -1.170169, 0.729133, 5.200668, 118.774872, -67.290482, 82.310104
1648227668.405079, 2.833538, -5.217414, 1.091906, -0.835421, 0.625248, 5.489405, 105.333847, -67.657471, 81.189880
1648227668.438424, 3.689165, -10.723779, 3.470395, -1.088477, 0.773734, 6.060116, 90.585373, -65.647751, 79.498779
1648227668.471752, 4.340837, -12.750321, 2.864662, -1.000151, 1.223440, 5.837159, 71.477936, -57.182327, 76.513962
1648227668.505081, 1.866131, -14.077906, 3.333776, -0.979065, 2.093193, 5.267738, 60.220093, -46.887253, 72.689865
1648227668.538414, 2.651429, -14.985607, 4.303129, -0.484158, 2.332127, 4.345359, 53.861755, -35.736206, 67.920700
1648227668.571754, 8.955362, -11.378892, 6.284929, -0.069797, -0.724661, 2.217286, 51.399673, -24.702469, 66.619736
1648227668.605139, 3.856760, -8.144027, 3.146879, 0.545953, -0.891634, -0.925262, 52.592026, -22.344681, 68.918228
1648227668.638485, 4.639065, -13.020716, 2.095226, 0.673433, -0.307450, -2.608245, 56.030960, -24.391266, 70.726303
1648227668.671763, -17.308731, -20.017022, -6.702119, 0.777575, 1.454105, -2.792867, 61.705994, -27.325409, 71.675812
1648227668.705100, 8.616582, -12.462418, 3.280505, 1.429333, 1.014895, -3.564296, 67.959793, -31.820526, 71.629868
1648227668.738410, 4.528333, -4.807707, 7.705139, 1.293149, 1.037103, -2.644730, 73.017548, -35.009888, 72.221863
1648227668.771740, 6.498611, -10.168773, 8.089858, 0.653252, -0.866620, -1.862793, 77.216080, -37.324036, 74.574661
1648227668.805078, 0.888249, -10.607810, 1.040131, 0.350890, -1.257281, -0.992129, 78.754974, -38.098724, 76.755234
1648227668.838416, -0.237325, -10.464457, 0.428861, 0.316113, 0.543913, -0.924452, 80.633896, -38.944183, 77.076416
1648227668.871749, 6.663063, -9.413103, 3.462913, 0.257791, -0.887145, -0.474483, 82.021072, -39.475800, 77.919998
1648227668.905084, -0.858471, -8.890718, 2.299032, 0.230526, -0.422660, -0.314630, 82.843582, -39.885239, 79.477066
1648227668.938473, 0.732476, -9.690082, 2.397045, 0.216019, -0.193576, -0.348819, 83.438950, -39.841705, 79.946823
1648227668.971758, 0.621146, -9.272593, 3.507356, 0.191205, -0.609128, -0.321704, 83.996262, -40.121033, 80.387360
1648227669.005082, -1.130362, -8.821885, 3.090615, 0.174734, -0.352161, -0.621904, 85.177521, -40.575272, 81.393402
1648227669.038483, -1.194707, -9.510517, 2.852392, 0.198902, -0.323622, -0.847546, 86.361115, -40.884720, 81.758743
1648227669.071768, -0.227898, -9.502736, 2.539051, 0.216733, -0.289439, -1.066787, 88.477249, -41.448929, 82.607864
1648227669.105089, 0.808791, -9.675567, 2.824559, 0.207219, -0.398796, -1.245831, 91.419113, -42.097015, 83.249573
1648227669.138418, -0.166547, -10.289381, 3.471143, 0.196592, -0.625670, -1.425752, 94.056824, -42.486771, 83.684006
1648227669.171797, -2.661305, -10.873865, 2.928408, 0.240547, -0.588285, -1.862947, 97.317383, -42.932236, 84.913437
1648227669.205090, -1.407192, -12.238261, 2.088043, 0.263403, -0.585552, -2.326100, 101.377869, -43.114273, 85.585373
1648227669.238431, -0.597054, -13.409774, 3.174861, 0.141789, -0.729386, -2.790122, 108.859879, -42.724655, 86.291443
1648227669.271758, -3.200748, -15.358804, 4.182670, 0.016863, -1.114844, -3.042881, 115.239700, -42.131592, 86.677765
1648227669.305088, -1.210419, -16.820314, 3.001730, -0.066016, -2.575464, -2.629886, 121.676697, -40.719070, 86.455978
1648227669.338424, -4.918738, -15.148264, 3.130269, 0.186825, -1.277591, -3.124283, 130.990082, -37.856110, 86.132828
1648227669.371789, 2.870349, -13.197438, 3.867833, 0.239602, -0.253513, -2.224968, 137.599884, -35.895737, 86.356857
1648227669.405091, 8.757092, -7.485920, 2.887258, 0.457504, 0.967341, -1.499892, 142.645706, -34.287292, 88.025848
1648227669.438423, 0.640748, -5.497536, 1.075745, 0.199730, 0.240400, 0.562278, 146.223450, -35.262344, 89.667267
1648227669.471816, 1.515979, -2.320131, 1.341501, 0.180709, 0.352397, 1.729272, 146.204468, -38.015533, 90.739166
1648227669.505161, 2.561197, -3.259855, 1.245883, -0.011186, 0.449793, 2.946976, 143.897186, -42.366180, 92.514282
1648227669.538423, 2.297236, -4.317643, 0.805798, -0.310689, 0.311513, 4.214250, 136.786926, -50.061646, 92.799759
1648227669.571754, 2.102857, -4.925471, 0.518195, -0.476750, 0.595753, 4.954748, 128.514923, -55.423401, 92.657761
1648227669.605107, 1.399710, -6.979397, 0.733823, -0.672421, 0.964011, 5.622084, 116.932632, -59.761902, 91.902023
1648227669.638431, 1.117045, -9.543737, 1.395071, -0.875096, 1.479613, 6.175420, 103.409973, -61.349091, 90.141235
1648227669.671756, 2.073828, -15.587450, 2.932298, -1.012447, 2.317557, 6.418541, 84.058090, -58.028702, 85.462204
1648227669.705107, 4.018368, -19.435830, 4.235642, -1.284925, 2.272788, 5.819622, 72.640778, -51.971100, 80.292282
1648227669.738435, 5.228188, -15.439758, 5.541679, -0.658739, 1.257472, 4.526000, 64.806641, -45.532425, 76.641815
1648227669.771763, 9.315240, -8.482507, 6.506692, 0.236510, -1.193975, 0.492433, 61.190628, -41.783661, 76.242752
1648227669.805095, 7.072621, -8.209418, 2.695123, 0.901205, -0.836382, -2.416384, 64.224228, -44.357208, 79.284912
1648227669.838470, 2.469170, -14.413842, 4.193594, 0.057347, -0.780009, -2.413462, 69.203644, -47.838760, 80.909668
1648227669.871758, 0.496946, -18.758271, -3.146580, 0.956280, 2.427608, -3.737386, 75.228836, -51.636642, 81.374924
1648227669.905094, 10.795605, -14.599692, 2.089689, 1.295982, 0.882503, -3.066298, 81.485748, -54.769440, 83.013748
1648227669.938428, 4.342932, -4.758775, 7.307403, 1.187398, 0.376918, -2.184023, 86.134308, -56.444183, 84.477142
1648227669.971759, 5.133617, -10.875362, 6.292561, 0.325743, -1.994055, -1.231452, 89.791412, -57.342148, 86.526321
1648227670.005092, -0.644489, -10.040234, 1.035941, 0.319322, -1.363610, -0.948186, 93.154800, -58.027908, 88.300430
1648227670.038490, 0.274435, -10.743082, 1.810016, 0.220951, 0.410792, -0.845308, 95.084595, -58.406006, 88.539124
1648227670.071830, 4.349965, -9.192986, 3.813814, 0.084893, -1.232975, -0.314015, 96.177521, -58.567032, 89.081924
1648227670.105095, -0.754024, -8.854356, 3.123984, 0.069373, -0.828005, -0.313141, 97.559860, -58.754150, 89.871948
1648227670.138439, -1.055693, -9.854235, 2.226757, 0.064571, -0.245006, -0.482783, 98.219330, -58.902420, 90.047928
1648227670.171190, -0.232088, -9.344270, 2.754230, 0.109843, -0.462006, -0.573283, 99.696350, -58.991058, 90.194183
1648227670.205097, -0.322918, -8.728511, 2.924817, 0.138517, -0.162819, -0.829255, 102.023346, -59.228836, 90.602875
1648227670.237785, 0.954089, -8.997410, 2.341679, 0.163322, -0.346034, -0.998528, 104.016479, -59.290268, 91.217651
1648227670.271811, -0.868347, -9.278130, 2.205509, 0.247534, -0.355033, -1.176121, 106.581802, -59.472168, 91.670364
1648227670.305095, -0.695067, -9.180866, 3.001431, 0.268292, -0.453294, -1.553951, 109.577469, -59.401794, 92.092468
1648227670.338454, -1.043722, -10.027066, 3.981857, 0.305269, -0.492197, -1.816384, 114.301605, -59.052094, 92.438858
1648227670.371762, -0.403423, -12.231677, 2.636016, 0.238311, -0.596403, -2.156727, 118.775375, -58.691559, 92.748047
1648227670.405094, -1.472584, -13.676578, 2.745251, 0.187826, -0.738994, -2.753977, 124.338165, -57.434433, 93.047226
1648227670.438446, -1.702277, -16.564733, 3.948637, 0.049691, -1.115272, -3.042125, 132.753220, -55.393173, 92.358490
1648227670.471808, -2.778022, -17.916559, 2.600402, -0.032942, -2.405922, -2.851631, 139.191666, -52.904327, 90.492844
1648227670.505096, -7.530363, -16.481984, 1.773655, -0.031083, -2.355030, -2.827038, 144.983673, -50.435562, 86.325348
1648227670.538430, -0.392051, -14.057555, 6.126612, 0.096346, 0.259015, -3.001166, 152.040787, -45.374588, 84.533890
1648227670.571764, 5.187487, -8.530541, 4.845266, 0.362051, 1.738788, -2.008538, 155.667480, -42.223602, 86.452026
1648227670.605106, 6.381445, -7.151480, 4.084658, -0.353136, 0.636670, -0.296787, 157.152435, -40.974915, 87.435486
1648227670.638429, 2.229151, -1.865831, 1.717540, -0.542760, 0.572280, 1.611587, 156.700790, -43.390656, 86.707687
1648227670.671764, 2.409165, -1.786972, 2.178125, -0.697644, 0.675896, 2.725887, 154.434601, -47.437836, 86.263504
1648227670.705114, 2.861520, -2.142810, 1.545607, -0.875068, 0.710677, 3.861470, 150.404709, -53.761978, 85.463776
1648227670.737632, 2.292448, -3.488202, 1.939453, -1.071308, 0.978371, 4.965790, 143.521942, -61.716858, 83.708649
1648227670.771775, 1.486051, -5.536292, 2.161814, -1.140298, 1.106930, 5.726069, 129.391052, -72.868622, 80.492340
1648227670.805157, 1.029058, -8.584560, 1.089960, -0.957066, 1.600875, 6.247196, 113.790482, -80.272308, 76.752029
1648227670.838439, 4.280384, -16.321273, 5.271134, -0.964968, 2.199713, 6.512762, 94.246613, -84.358582, 71.738541
1648227670.871895, 3.422212, -18.165855, 3.304597, -0.897839, 2.092819, 5.771626, 66.602646, -81.108154, 61.013458
1648227670.905097, 3.379715, -16.427216, 5.051167, -0.572596, 1.719017, 4.593218, 50.325333, -73.320343, 52.685654
1648227670.938434, 9.253589, -8.938153, 6.646154, 0.114881, -1.490434, 1.022423, 40.159012, -66.338455, 47.982391
1648227670.971774, 4.515165, -9.837326, 3.699341, 0.580477, -1.503719, -1.728839, 36.616577, -67.147110, 50.664886
1648227671.005153, 7.507319, -10.644022, 1.897255, 0.902644, -0.873237, -2.942900, 40.096909, -72.787140, 52.986008
1648227671.038434, -14.602834, -17.739688, -3.972429, 0.142997, -1.834554, -0.933750, 40.491058, -74.871338, 54.504196
1648227671.071766, 6.914604, -17.248427, -0.943166, 1.164627, 2.408606, -3.437078, 46.369827, -77.809647, 51.617630
1648227671.105098, 4.428824, -12.536638, 2.365022, 1.237956, 1.308505, -2.658590, 57.461655, -83.039337, 51.164566
1648227671.138432, 4.108450, -3.523367, 9.161862, 1.177131, 0.038121, -2.091515, 63.004944, -85.753845, 52.661911
1648227671.171773, 3.903895, -9.772233, 5.345055, 0.209973, -2.686446, -0.946997, 65.640610, -87.493927, 56.334137
1648227671.205096, -3.172018, -10.684275, -0.295235, 0.331956, -0.528825, -0.977324, 67.524857, -88.873291, 59.592270
1648227671.238438, 1.556381, -10.500370, 1.680580, 0.313627, 0.540418, -0.773782, 69.868729, -89.596741, 59.869476
1648227671.271785, 3.349189, -9.059061, 4.714482, 0.152073, -1.391264, -0.186141, 70.396530, -89.674088, 61.331223
1648227671.305096, -2.318934, -9.094076, 2.911499, 0.115901, -0.476257, -0.319646, 70.827362, -89.954712, 62.977539
1648227671.338450, 0.177021, -9.640103, 2.606986, 0.139910, -0.243594, -0.467326, 72.003922, -90.241028, 63.627716
1648227671.371767, -0.439486, -9.083751, 2.948759, 0.162590, -0.508897, -0.575938, 72.990280, -90.396423, 64.573395
1648227671.405101, -0.671723, -9.109638, 2.985569, 0.163796, -0.386018, -0.810478, 75.488632, -91.097168, 65.787521
1648227671.437614, -0.653916, -8.867075, 2.748544, 0.217010, -0.444172, -1.019477, 77.852158, -91.527206, 66.441422
1648227671.471772, -0.637157, -9.577256, 2.533963, 0.262743, -0.327312, -1.316836, 80.870056, -92.326050, 67.293518
1648227671.505103, 0.299574, -10.260052, 3.099444, 0.269152, -0.448041, -1.493973, 84.562714, -93.054108, 68.132278
1648227671.538437, -1.693299, -10.350283, 3.231424, 0.287284, -0.446396, -1.867773, 90.309296, -93.920792, 69.082520
1648227671.571834, -1.544410, -12.226440, 2.543839, 0.269593, -0.341286, -2.295994, 96.187271, -94.055267, 69.139221
1648227671.605124, -0.596007, -13.696480, 2.387468, 0.266774, -0.825679, -2.729428, 102.998260, -93.265579, 69.101593
1648227671.638513, -2.123657, -15.489737, 3.587562, 0.087463, -1.138009, -3.090399, 112.615707, -91.282867, 68.145752
1648227671.671785, -2.965069, -17.297957, 3.080589, 0.036127, -2.591972, -2.898860, 118.795639, -88.694138, 66.141235
1648227671.705134, -8.207473, -16.828095, 2.002002, 0.183127, -1.883820, -3.126516, 123.282211, -85.073090, 62.756531
1648227671.738447, 0.959177, -14.892832, 5.665729, 0.208772, -0.225505, -2.969062, 129.505936, -78.613327, 57.332809
1648227671.771782, 5.693860, -8.520664, 4.221426, 0.508048, 1.352309, -1.870948, 132.453171, -73.764114, 55.051575
1648227671.804297, 3.859453, -5.824494, 2.328960, -0.201897, -0.204219, 0.497492, 132.238388, -69.452942, 52.672424
1648227671.837954, 1.853411, -1.629703, 1.537676, -0.399036, 0.137007, 1.861480, 128.697205, -66.014053, 50.431747
1648227671.871830, 1.866579, -1.502362, 1.896357, -0.520487, 0.313921, 2.951261, 121.779114, -63.320511, 48.918228
1648227671.905126, 2.635118, -2.508674, 1.671153, -0.702847, 0.765552, 4.359100, 114.877914, -61.826660, 47.754196
1648227671.938448, 2.146701, -3.734955, 1.968632, -0.919461, 1.267391, 5.177999, 106.669174, -60.137711, 46.221848
1648227671.971820, 1.435773, -5.605874, 1.678635, -1.032380, 1.617084, 5.840374, 93.466034, -55.609192, 44.185104
1648227672.005119, 0.912191, -8.379556, 1.701828, -0.967021, 1.682861, 6.254942, 82.638351, -49.002579, 42.597015
1648227672.038437, 1.613243, -16.620997, 4.355951, -1.016770, 2.574559, 6.384131, 73.407120, -38.864059, 41.395416
1648227672.071851, 5.112518, -18.615816, 5.675006, -1.305423, 2.147046, 5.792767, 67.334427, -22.174957, 39.922989
1648227672.105123, 5.360318, -17.094151, 8.045116, -0.799111, 0.640159, 4.872882, 65.486221, -11.011810, 41.410492
1648227672.138441, 6.726210, -7.863456, 7.031770, 0.207944, -2.754407, 0.507760, 63.973145, -5.191116, 45.794815
1648227672.171782, 0.630573, -10.285790, 2.410512, 0.746389, -0.741092, -2.205855, 64.087143, -5.867355, 51.693573
1648227672.205116, 6.026355, -11.134983, 2.239177, 0.706984, 0.712754, -3.086262, 66.943222, -8.605591, 53.106140
1648227672.237775, -6.704513, -15.776741, -8.273912, 0.430539, 1.917399, -2.836741, 70.052094, -9.997375, 54.905518
1648227672.271778, 7.195623, -12.693309, 3.619434, 1.244918, 1.354071, -3.103547, 74.424637, -13.071304, 56.887085
1648227672.305118, 3.433884, -8.462006, 4.335450, 1.221309, 1.575951, -2.596456, 79.882141, -16.943451, 60.024399
1648227672.338449, 6.775441, -9.948506, 8.439710, 0.524603, -0.976090, -1.594003, 81.654358, -18.877991, 62.095566
1648227672.371797, 2.881272, -9.918130, 3.741539, 0.183867, -2.708898, -0.882549, 81.737152, -19.837265, 64.018021
1648227672.405109, -1.818845, -11.056872, -0.247950, 0.275863, -0.162993, -1.020357, 82.381989, -20.954407, 66.292023
1648227672.438033, 0.403573, -9.833884, 2.030283, 0.331708, 0.616500, -0.803365, 83.501877, -21.534058, 67.174545
1648227672.471775, 2.492663, -9.107543, 4.266168, 0.210424, -0.959459, -0.397765, 83.998795, -22.027390, 68.060181
1648227672.505109, -0.531812, -8.797494, 2.558653, 0.219215, -0.440007, -0.502388, 84.668854, -22.685791, 69.379700
1648227672.538488, 0.121356, -10.043975, 2.803311, 0.200800, -0.352158, -0.568971, 85.109741, -22.994003, 70.374329
1648227672.571785, -0.595707, -9.118766, 3.389292, 0.191737, -0.448086, -0.707344, 85.581863, -23.251160, 71.140976
1648227672.605156, 0.100108, -9.190891, 2.833987, 0.208029, -0.471243, -0.868308, 86.625900, -24.014801, 72.286453
1648227672.638441, -0.170288, -9.381081, 2.449717, 0.227970, -0.506210, -1.073096, 88.311325, -24.663666, 73.602982
1648227672.671778, -1.565808, -10.332028, 3.113061, 0.263303, -0.453255, -1.440919, 89.832779, -25.322754, 74.649796
1648227672.705130, -0.540192, -10.270975, 3.300856, 0.260694, -0.682022, -1.761066, 91.954544, -25.959686, 76.114685
1648227672.738467, -0.971298, -11.583746, 3.041833, 0.213043, -0.660867, -2.148234, 95.795853, -27.096939, 78.581085
1648227672.771762, -2.133683, -13.476512, 2.489521, 0.168914, -0.726047, -2.785143, 99.227844, -27.716690, 80.214874
1648227672.805121, -1.143979, -16.130036, 3.366248, 0.006390, -1.060821, -3.162932, 104.025162, -28.161972, 82.063416
1648227672.838450, -3.849278, -18.173637, 3.920206, -0.176502, -2.125947, -3.100060, 111.245560, -28.009735, 84.059311
1648227672.871841, -10.090961, -16.057013, 1.179294, 0.085495, -2.102653, -3.051604, 117.422089, -27.374573, 84.585434
1648227672.905125, 2.069488, -14.071771, 5.675754, 0.264334, 0.197015, -3.227808, 123.639481, -25.654922, 85.142761
1648227672.938456, 4.838382, -8.350078, 3.783138, 0.598060, 1.337513, -1.986199, 129.418030, -23.158249, 86.582230
1648227672.971829, 7.446266, -7.207894, 4.359991, -0.293277, 0.223107, -0.051992, 131.785461, -22.526794, 86.777512
1648227673.005117, 1.966388, -1.695693, 0.339977, -0.401944, -0.169995, 1.958194, 132.433792, -23.505035, 86.391281
1648227673.038454, 2.600851, -1.750910, 1.626112, -0.458387, 0.276988, 2.906852, 132.233551, -25.076645, 86.764282
1648227673.071762, 2.947262, -2.347365, 1.042076, -0.591854, 0.729637, 4.021030, 129.541916, -28.391586, 87.204132
1648227673.105122, 2.223465, -3.552846, 1.224335, -0.745358, 0.959617, 5.169449, 125.907120, -31.510681, 87.877335
1648227673.138500, 1.556680, -5.291485, 1.329530, -0.820018, 1.026795, 5.882272, 120.634201, -34.759659, 88.424637
1648227673.171852, 0.880318, -8.527997, 1.487547, -0.775585, 1.088923, 6.498206, 111.156799, -37.960236, 89.230850
1648227673.205116, 3.108123, -16.959627, 4.475511, -0.715265, 1.857657, 6.723942, 102.838364, -39.024811, 89.873871
1648227673.238447, 3.004125, -19.470246, 2.844162, -0.793113, 2.192355, 6.043838, 94.013260, -38.853928, 89.641876
1648227673.271783, 2.746449, -16.936433, 4.053683, -0.420533, 1.874467, 4.526722, 83.829132, -37.574768, 87.816589
1648227673.305116, 10.004770, -6.096386, 5.269937, 0.444419, -1.169596, -0.111828, 80.842148, -37.706787, 88.704956
1648227673.338453, 7.035212, -9.620650, 3.737349, 0.809987, -0.772068, -2.695983, 82.897034, -39.909042, 90.672440
1648227673.371797, 5.726481, -13.095685, 4.546739, 0.107175, -0.817916, -2.543304, 87.211151, -42.384613, 92.658508
1648227673.405167, -19.359365, -14.993987, -7.280019, 0.516032, 0.504248, -2.328426, 90.550995, -44.871231, 94.397156
1648227673.438464, 9.409063, -13.405285, 1.717540, 1.278290, 1.747449, -3.169302, 94.346558, -47.141602, 95.675964
1648227673.471830, 6.668600, -7.184700, 6.064662, 1.213779, 0.923264, -2.482479, 97.479462, -48.193298, 97.872467
1648227673.505115, 5.851578, -9.685444, 9.096021, 0.589133, -1.068345, -1.635766, 101.600998, -48.749832, 99.849640
1648227673.538532, -0.454749, -10.961553, 0.490362, 0.413662, -1.680125, -0.909881, 104.574478, -48.824875, 100.754150
1648227673.571784, 0.123750, -10.439767, 0.986710, 0.337866, 0.721958, -0.930972, 105.880081, -49.048630, 101.586288
1648227673.605126, 4.149750, -9.925313, 3.338565, 0.277834, -0.569067, -0.504543, 107.302704, -48.975510, 102.295609
1648227673.638454, -0.201113, -8.403498, 3.463362, 0.191269, -0.731626, -0.328743, 108.548126, -49.095535, 103.032745
1648227673.671874, -0.535703, -9.513510, 2.280627, 0.206918, -0.357148, -0.427838, 109.310379, -49.089294, 103.056793
1648227673.705137, 0.174926, -9.504532, 3.092860, 0.226396, -0.567723, -0.498465, 110.467316, -48.922638, 103.500443
1648227673.738452, 0.313491, -8.821436, 3.033005, 0.235648, -0.532872, -0.706258, 112.265869, -49.082504, 103.795074
1648227673.771831, -0.964863, -8.887576, 2.997690, 0.239612, -0.408795, -0.949871, 113.793015, -48.794296, 104.330139
1648227673.805141, -0.183007, -9.391555, 2.710536, 0.272512, -0.468498, -1.164004, 115.888016, -48.871719, 104.788193
1648227673.838463, -0.312892, -10.283395, 2.816479, 0.312623, -0.478319, -1.531789, 119.125732, -48.464157, 105.481735
1648227673.871808, -1.521814, -10.677690, 2.908057, 0.324298, -0.385884, -1.940058, 121.985504, -48.010468, 105.960434
1648227673.905132, -0.764947, -12.164190, 2.446575, 0.333776, -0.600122, -2.333575, 125.532898, -47.283859, 106.317352
1648227673.938452, -0.744447, -13.388675, 2.769193, 0.297311, -0.755475, -2.729122, 131.499023, -46.067551, 106.806396
1648227673.971852, -2.526182, -15.570092, 4.340538, 0.154460, -1.351648, -3.165729, 136.748749, -44.856079, 106.926743
1648227674.005133, -1.395520, -17.447745, 3.135656, 0.156924, -2.701719, -2.749877, 142.236298, -43.771835, 105.235291
1648227674.038453, -3.446902, -17.685519, 1.842937, 0.122241, -3.221402, -2.643110, 149.053360, -42.979065, 101.581848
1648227674.071813, 0.697611, -12.775759, 5.316325, 0.260734, 0.080963, -2.643739, 152.367203, -42.039825, 102.038467
1648227674.105111, 10.008062, -7.581988, 4.343980, 0.380992, 1.158252, -1.585126, 152.299194, -41.931213, 103.839050
1648227674.138525, 1.240795, -7.199813, 1.331475, 0.063561, 0.470843, 0.071533, 149.779999, -43.954559, 105.240952
1648227674.171809, 3.567360, -1.968183, 1.297657, -0.064778, 0.520592, 1.610232, 141.959885, -48.750977, 106.104950
1648227674.205152, 3.502867, -2.959832, 0.947505, -0.395233, 0.555132, 2.883184, 132.993927, -52.101700, 105.400238
1648227674.238522, 2.221969, -2.927211, 0.278326, -0.686878, 0.562600, 3.848846, 121.653061, -54.451782, 103.635818
1648227674.271234, 1.804779, -3.861099, 0.088885, -0.793984, 0.923921, 4.603109, 104.249954, -53.766815, 99.649506
1648227674.305124, 1.747767, -7.355287, 1.326388, -1.152755, 1.305648, 5.557676, 90.709045, -49.252747, 95.493637
1648227674.338457, 1.982698, -9.939678, 1.049857, -1.227899, 1.559348, 6.066502, 79.315140, -41.195938, 90.487030
1648227674.371794, 4.854992, -13.840730, 4.230704, -1.343538, 1.362710, 6.376144, 69.961105, -28.419220, 83.303940
1648227674.405175, 3.306093, -15.431976, 2.215834, -1.017068, 0.971601, 6.015837, 66.652527, -20.280975, 79.190674
1648227674.438465, 2.421585, -15.642367, 3.876512, -0.472651, 1.314663, 4.874289, 65.307419, -14.608353, 74.859604
1648227674.471795, 8.515577, -13.112893, 6.895450, -0.577654, 0.556888, 2.631907, 65.301407, -11.725082, 70.028763
1648227674.505136, 7.063643, -7.300370, 3.533991, 0.649132, -0.889251, -1.661300, 67.068695, -14.272705, 67.912506
1648227674.538485, 3.853617, -12.272378, 3.343952, 0.483468, -0.151877, -2.686636, 70.083145, -18.986923, 66.821976
1648227674.571848, -20.067450, -17.423503, -5.873725, 0.625404, 0.241983, -1.826051, 72.364029, -22.489761, 65.216415
1648227674.604636, 7.049278, -14.705486, 2.334347, 1.368930, 1.341549, -3.271517, 78.118042, -29.537338, 60.918640
1648227674.638506, 4.746355, -6.677129, 6.232107, 1.112281, 1.160358, -2.546828, 82.552368, -33.463638, 59.837906
1648227674.671811, 5.216666, -8.608053, 8.792406, 0.623994, -0.787210, -1.772727, 85.584167, -36.249252, 59.805115
1648227674.704738, 1.447445, -10.733954, -0.516100, 0.364181, -1.972755, -0.820051, 86.273697, -37.699387, 61.675491
1648227674.738507, -0.784700, -10.359561, 0.093524, 0.373580, 0.373146, -0.879557, 87.490128, -38.732101, 62.132706
1648227674.771794, 3.757101, -9.961974, 3.068020, 0.290049, -0.770466, -0.549467, 88.049591, -39.579224, 62.326187
1648227674.805133, 0.237026, -8.274660, 3.867833, 0.244164, -0.968628, -0.348424, 88.223618, -40.000046, 63.059372
1648227674.838471, 0.077063, -9.737218, 2.249951, 0.208182, -0.332770, -0.505525, 88.804794, -40.641708, 63.274185
1648227674.871807, -0.027683, -9.883863, 2.898780, 0.198771, -0.636163, -0.568714, 89.285950, -41.055862, 63.999634
1648227674.905160, -0.783353, -9.034670, 3.008015, 0.184155, -0.486377, -0.762864, 90.131546, -41.571274, 63.871033
1648227674.938467, -1.824980, -9.612869, 2.906411, 0.184720, -0.330608, -1.078481, 91.930817, -42.550949, 64.485031
1648227674.971811, -0.094421, -9.201216, 2.134580, 0.196977, -0.330175, -1.342944, 93.905060, -43.693069, 63.933777
1648227675.005167, -0.034417, -9.585785, 3.426103, 0.207282, -0.428968, -1.462874, 96.459396, -44.771637, 63.973724
1648227675.038476, 1.220893, -10.584616, 2.635118, 0.201333, -0.815288, -1.576202, 99.799255, -45.753464, 63.268799
1648227675.071788, -0.905308, -11.222072, 1.848623, 0.188768, -0.414929, -1.900331, 102.571655, -46.667664, 62.832779
1648227675.105205, 0.282366, -11.349114, 1.936610, 0.188126, -0.352026, -2.161888, 106.233505, -47.603073, 62.342026
1648227675.138474, -0.344765, -11.984326, 2.291401, 0.206431, -0.726953, -2.531744, 111.288330, -47.826279, 60.422974
1648227675.171776, -3.094356, -16.099659, 3.555838, 0.184262, -1.388296, -2.859959, 115.713364, -48.147583, 58.681656
1648227675.205064, 0.252289, -17.546057, 4.045902, 0.265400, -2.831898, -2.408380, 118.439392, -47.560669, 56.012009
1648227675.238399, -2.262221, -13.167511, 4.635474, 0.433093, 0.104273, -2.885382, 120.716476, -46.753204, 53.377884
1648227675.271705, 5.258864, -10.398766, 5.229385, 0.718045, 1.230530, -2.307972, 126.888611, -44.928284, 50.860550
1648227675.305082, 8.670901, -7.165097, 4.074333, 0.075697, 0.112899, -0.258402, 129.357224, -43.936935, 49.687134
1648227675.338356, 0.307056, -3.274071, 1.661277, -0.162977, -0.027729, 0.811546, 128.835251, -43.027664, 47.491516
1648227675.371633, 3.532345, -2.718915, 1.751807, -0.412559, 0.615257, 1.809442, 127.883163, -43.297424, 44.818359
1648227675.404941, 3.421464, -2.189797, 1.942146, -0.587649, 0.971201, 2.521807, 126.651230, -43.767136, 42.367935
1648227675.438237, 3.193715, -3.932626, 1.485452, -0.710195, 1.112429, 3.209897, 124.566025, -44.223495, 39.438049
1648227675.471797, 5.855469, -4.975151, 3.736601, -0.904041, 1.175201, 3.836130, 121.183640, -45.259827, 35.462921
1648227675.505166, 6.206818, -6.543353, 2.873940, -1.060201, 1.344403, 4.264644, 118.237030, -46.278336, 32.284363
1648227675.538530, 5.426159, -8.919748, 3.412336, -1.321583, 1.941443, 4.032722, 115.691864, -46.582855, 28.238998
1648227675.571797, 8.540267, -11.342530, 3.907936, -1.248667, 2.041287, 3.552985, 113.882370, -47.478729, 24.486694
1648227675.605152, 7.822755, -12.525865, 5.589713, -1.202511, 1.232957, 2.887392, 111.962845, -47.778229, 21.315109
1648227675.638534, 6.602610, -9.697265, 3.356072, -0.737733, 0.335082, 2.442679, 108.747253, -48.656052, 18.999893
1648227675.671801, 3.828179, -10.163985, 3.160047, -0.162060, 0.163578, 1.767480, 105.340759, -49.655151, 17.287842
1648227675.705204, 3.132663, -9.983222, 2.523638, -0.099225, -0.265752, 1.178923, 101.138672, -51.483047, 15.826370
1648227675.738468, 1.129465, -8.841487, 1.292121, 0.046375, -0.322037, 0.519487, 98.858749, -52.892502, 15.047394
1648227675.771813, 1.625962, -9.446772, 1.278354, 0.207862, -0.182291, 0.018293, 97.553970, -54.412415, 14.286865
1648227675.805209, 1.624765, -8.660576, 1.535431, 0.230386, -0.418705, -0.187851, 96.995041, -56.860809, 12.982895
1648227675.838485, -5.546019, -12.888436, 2.371906, -0.378929, -0.448313, 0.304612, 95.966187, -57.832565, 11.929504
1648227675.871874, -6.536171, -15.804424, -4.245967, 0.187086, 1.363116, -0.541720, 96.766800, -57.987427, 11.373993
1648227675.905184, -1.648857, -12.252477, -1.180341, 0.697041, 1.425584, -0.995893, 102.199326, -59.105286, 13.014282
1648227675.938470, -0.307356, -7.496096, 7.047482, 0.562407, 0.573429, -0.790775, 105.220078, -59.690628, 14.249023
1648227675.971803, -0.095020, -8.653543, 4.520103, 0.339561, -0.160409, -0.473781, 106.043762, -60.534332, 14.993500
1648227676.005136, -0.400580, -10.975320, 0.657807, 0.281062, -0.041445, -0.264069, 106.376083, -61.303741, 15.390198
1648227676.038504, -2.287061, -9.977536, 2.102857, 0.222458, 0.379285, -0.267543, 107.527939, -61.545380, 16.553284
1648227676.071841, -0.719009, -9.099612, 3.823690, 0.082673, -0.109916, -0.129475, 108.049652, -61.562378, 16.772369
1648227676.105138, -1.708712, -9.843610, 2.280178, -0.038136, -0.520505, -0.131257, 107.394394, -61.617630, 16.539001
1648227676.138482, -2.396596, -9.250746, 1.835455, -0.031524, -0.330686, -0.170137, 106.878571, -61.668488, 16.508240
1648227676.171826, -2.209998, -9.045294, 1.874959, -0.028857, -0.307053, -0.202046, 106.699677, -62.031937, 16.922180
1648227676.205167, -2.210746, -9.515006, 1.934515, -0.024552, -0.096138, -0.192988, 106.530823, -61.982803, 16.523163
1648227676.238474, -1.211915, -9.580398, 1.906383, -0.037294, -0.137782, -0.217471, 106.688889, -61.893677, 17.117462
1648227676.271802, -1.161038, -8.960599, 0.677409, -0.000017, -0.413136, -0.132941, 106.432968, -62.246429, 17.105835
1648227676.305261, -2.660856, -10.474183, 2.722806, -0.052561, -0.157237, -0.248518, 106.170242, -62.384521, 17.233871
1648227676.338468, -1.234959, -8.539070, 3.465457, -0.222135, -0.810908, -0.317189, 105.710220, -62.306625, 17.027283
1648227676.371865, -4.107253, -10.000880, 0.457143, -0.137190, -0.032693, -0.479742, 105.570328, -62.645355, 17.124893
1648227676.405145, -1.022923, -9.454253, 0.357484, 0.005572, 0.311826, -0.559592, 106.951385, -62.923492, 17.386612
1648227676.438470, 1.565209, -9.366715, 2.408118, -0.050268, -0.347549, -0.294998, 107.207367, -62.984726, 17.440628
1648227676.471804, -0.210839, -9.845406, 2.152836, -0.114589, -0.246835, -0.141645, 106.862427, -63.265549, 17.594208
1648227676.505142, -0.044143, -9.760412, 1.921347, -0.116890, -0.119523, -0.118197, 106.601837, -63.400528, 17.499649
1648227676.538475, -0.537049, -9.487473, 1.390133, -0.081650, -0.058252, -0.078923, 106.514587, -63.206406, 17.399887
1648227676.571805, -0.609175, -9.476250, 1.404798, -0.063452, -0.097530, -0.065332, 106.386017, -63.055847, 17.380737
1648227676.605144, -0.839168, -9.672126, 1.408838, -0.038078, -0.086030, -0.070814, 106.260132, -63.171341, 17.082458
1648227676.638547, -0.038457, -9.535357, 1.875707, -0.044937, -0.018745, -0.020316, 106.194321, -63.170883, 17.388657
1648227676.671809, -0.097414, -9.435848, 2.049137, -0.058761, -0.070538, 0.015957, 106.120316, -63.120987, 17.278061
1648227676.705138, -0.320075, -9.620202, 1.647061, -0.061828, -0.105538, 0.042088, 105.804764, -62.857498, 16.902847
1648227676.738512, -0.547823, -9.640852, 1.400458, -0.041471, -0.022062, 0.028283, 105.830887, -62.849243, 16.915405
1648227676.771856, -0.365714, -9.607033, 1.770362, -0.037123, 0.034915, 0.036075, 105.543686, -62.638138, 16.750046
1648227676.805143, -0.648679, -9.493010, 1.845181, -0.041025, 0.011450, 0.050265, 105.363693, -62.653809, 16.470474
1648227676.838482, -0.622792, -9.733028, 1.668010, -0.047963, -0.019217, 0.046232, 105.411087, -62.522400, 16.381500
1648227676.871870, -0.780959, -9.690082, 1.547103, -0.045077, -0.038900, 0.038069, 105.404556, -62.415787, 15.997360
1648227676.905148, -1.055993, -9.677363, 1.599327, -0.035697, -0.012919, 0.012207, 105.147293, -62.485168, 16.232452
1648227676.938518, -0.496797, -9.716867, 1.733103, -0.045077, -0.045382, 0.014061, 105.270721, -62.485687, 16.450760
1648227676.971809, -0.857723, -9.717616, 1.439813, -0.034727, 0.062185, 0.001739, 105.082031, -62.245804, 16.236359
1648227677.005142, -0.792032, -9.677213, 1.581669, -0.034835, 0.093857, -0.013707, 105.412094, -62.527817, 16.230042
1648227677.038526, -0.675015, -9.643246, 1.563863, -0.034373, 0.049517, -0.019048, 105.419678, -62.446869, 16.042755
1648227677.071808, -0.843956, -9.630227, 1.451036, -0.014408, 0.040379, -0.039278, 105.453537, -62.308670, 16.211472
1648227677.105174, -0.403872, -9.750386, 1.751658, -0.035321, -0.016246, -0.012826, 105.621948, -62.303635, 16.110443
1648227677.138507, -0.485125, -9.610176, 1.699434, -0.056264, -0.048599, -0.007054, 105.477188, -62.241501, 16.118637
1648227677.171926, -0.617255, -9.640253, 1.501913, -0.042154, -0.051070, 0.009917, 105.175049, -62.328781, 15.821960
1648227677.205150, -0.720954, -9.690830, 1.247529, -0.039065, -0.008623, 0.015589, 105.285568, -62.399460, 15.722214
1648227677.238479, -0.564882, -9.673622, 1.604863, -0.037724, -0.027073, 0.008353, 105.123291, -62.182922, 15.326721
1648227677.271859, -0.483479, -9.676914, 1.545008, -0.045974, -0.095025, 0.035169, 104.940781, -62.119781, 15.409348
1648227677.305145, -0.927604, -9.628432, 1.284040, -0.030773, -0.027075, 0.010872, 104.779816, -62.206726, 15.246765
1648227677.338481, -0.669628, -9.706243, 1.361852, -0.025944, 0.012320, -0.003671, 104.817413, -62.258026, 15.378510
1648227677.371835, -0.413898, -9.651625, 1.641824, -0.029537, 0.000275, 0.014721, 104.514908, -62.088135, 15.513977
1648227677.404350, -0.631620, -9.566482, 1.479916, 0.005462, -0.052939, 0.014526, 104.257523, -62.060608, 15.538223
1648227677.437664, -0.887950, -9.759963, 1.369633, -0.016664, -0.053910, 0.005234, 104.285400, -62.099472, 15.351669
1648227677.471818, -0.940323, -9.670031, 1.225682, -0.054645, 0.003673, 0.001614, 104.305481, -62.154648, 15.156464
1648227677.505147, -0.714220, -9.651027, 1.434725, -0.028156, 0.020871, -0.025749, 104.346664, -62.079697, 15.019745
1648227677.538530, -0.485275, -9.707291, 1.547253, -0.031387, -0.006674, -0.023705, 104.298630, -62.024231, 15.074478
1648227677.571808, -0.628628, -9.641151, 1.423503, -0.031050, -0.001378, -0.011456, 104.465439, -62.100433, 15.213181
1648227677.605153, -0.595707, -9.716419, 1.378611, -0.027181, -0.009854, -0.024399, 104.469833, -62.153793, 14.987198
1648227677.638485, -0.600645, -9.666888, 1.294964, -0.024038, -0.006433, -0.034120, 104.316833, -62.102951, 14.859894