SamplingTime, AccelerationX, AccelerationY, AccelerationZ, GyroX, GyroY, GyroZ, MagneticFieldX, MagneticFieldY, MagneticFieldZ
1648227769.485603, , , , , , , , , 
1648227769.519428, 0.023343, -9.704148, 1.583764, 0.041168, 0.049072, -0.008452, 109.267868, -70.068481, 165.290253
1648227769.552747, 0.064793, -9.697714, 1.851765, 0.034206, 0.027747, 0.000609, 109.058365, -69.945801, 165.525131
1648227769.586079, -0.002693, -9.627384, 1.709011, 0.030235, 0.006425, -0.005581, 108.849960, -69.708664, 165.530746
1648227769.619432, 0.276081, -9.620800, 1.655890, 0.031638, 0.000368, 0.004743, 108.887558, -69.846176, 165.778107
1648227769.652751, 0.100856, -9.617508, 1.669058, 0.031306, -0.010222, 0.003269, 109.028564, -69.669434, 165.790894
1648227769.686076, -0.247950, -9.693075, 1.653645, 0.042725, 0.008378, -0.032306, 109.273209, -69.658585, 165.936874
1648227769.719442, -0.222062, -9.686641, 1.611896, 0.057056, 0.041141, -0.060398, 109.110016, -69.504791, 166.255615
1648227769.752771, -0.079458, -9.805752, 1.655142, 0.063070, 0.009730, -0.076594, 109.168472, -69.511627, 166.054169
1648227769.786093, 0.230592, -9.362077, 1.628356, 0.094513, -0.030810, -0.124810, 109.515717, -69.435806, 166.298431
1648227769.819417, -0.090531, -9.863363, 1.853860, 0.126340, 0.078526, -0.101003, 109.692856, -69.179688, 166.705551
1648227769.852751, 0.719607, -9.649979, 1.859397, 0.113087, 0.025046, -0.042088, 109.680038, -69.021500, 167.422028
1648227769.886079, 0.175525, -9.478046, 1.880945, 0.113447, 0.062224, -0.050287, 109.511597, -68.915894, 167.490280
1648227769.919446, 0.051475, -9.600599, 1.864485, 0.132989, -0.006549, -0.025156, 109.853271, -68.672272, 168.028061
1648227769.952763, 0.379182, -9.714024, 1.557727, 0.141696, 0.073817, -0.044606, 109.731155, -68.440155, 168.427765
1648227769.986089, 0.077213, -9.474006, 1.997363, 0.160211, 0.044276, -0.069171, 109.751129, -68.350952, 168.734024
1648227770.019408, 0.050877, -9.513510, 1.991976, 0.187612, 0.076288, -0.068675, 109.659454, -68.005859, 169.213638
1648227770.052767, 0.168791, -9.684995, 1.790264, 0.197832, 0.148744, -0.111367, 109.286484, -67.673859, 169.996750
1648227770.086073, -0.163554, -9.142858, 1.789666, 0.239892, 0.172124, -0.189027, 109.102509, -67.336090, 170.467300
1648227770.119414, 0.099659, -9.717316, 2.207454, 0.290734, 0.318410, -0.244909, 108.487717, -66.791443, 171.296555
1648227770.152803, 0.202460, -9.182512, 1.683573, 0.331278, 0.369596, -0.304666, 108.130661, -66.463943, 173.019119
1648227770.186106, 0.271293, -9.442881, 2.595764, 0.333039, 0.431263, -0.359491, 107.309601, -65.998734, 173.756577
1648227770.219407, -0.540940, -9.946112, 2.812588, 0.295312, 0.426805, -0.370667, 106.901535, -65.748291, 174.515717
1648227770.252769, 1.061978, -9.956437, 3.598485, 0.202647, 0.238978, -0.343301, 106.302368, -65.222336, 175.153473
1648227770.286129, 0.334590, -9.231892, 3.661632, 0.140005, -0.009986, -0.338899, 106.522461, -64.654221, 175.699707
1648227770.319420, 0.381127, -10.119542, 2.675221, 0.108964, -0.243863, -0.382774, 107.959366, -64.183243, 175.851929
1648227770.352744, 0.968305, -9.316587, 3.021931, 0.093772, -0.414142, -0.408098, 109.988342, -63.674149, 175.968994
1648227770.386145, 0.678756, -9.356241, 3.328988, 0.064839, -0.452407, -0.466376, 111.937180, -62.951279, 175.780121
1648227770.419408, 1.147720, -9.402479, 2.607585, 0.080936, -0.386168, -0.517605, 113.857422, -62.545563, 175.751266
1648227770.451893, 1.037288, -9.530868, 2.515707, 0.081141, -0.263982, -0.551097, 115.982697, -61.626755, 175.243851
1648227770.486077, 1.495179, -9.417892, 2.947711, 0.090815, -0.313118, -0.601431, 117.592438, -60.979752, 174.894409
1648227770.519484, 0.783203, -9.402329, 2.981380, 0.085196, -0.310198, -0.698838, 119.367859, -60.083344, 175.014023
1648227770.552787, 1.745672, -9.703400, 2.705448, 0.097675, -0.514068, -0.790334, 122.643677, -58.743652, 174.397736
1648227770.586145, 1.570297, -9.763405, 2.218527, 0.088233, -0.407024, -0.900838, 124.867065, -57.420685, 173.793518
1648227770.619061, 1.250073, -10.718990, 2.333299, 0.073126, -0.341992, -1.081027, 127.234268, -56.300247, 172.981812
1648227770.652018, 0.696713, -11.013328, 2.626738, 0.084445, -0.389645, -1.412566, 129.664291, -54.743378, 171.961685
1648227770.686084, 0.461931, -11.298986, 2.906860, 0.073013, -0.593527, -1.682447, 133.671494, -52.337418, 169.602844
1648227770.719416, -0.967856, -12.861801, 2.536357, 0.032353, -0.711458, -2.017480, 137.543137, -49.434174, 167.610153
1648227770.752740, -1.316961, -14.275577, 2.020856, -0.004549, -1.199852, -2.321575, 141.583252, -46.310730, 164.360001
1648227770.786092, 0.098761, -16.504728, 1.247978, -0.110428, -2.351531, -2.029793, 149.369827, -41.409836, 157.949524
1648227770.819417, -0.892888, -14.098855, 2.172289, -0.056965, -1.899550, -2.510862, 155.451523, -36.678314, 151.119965
1648227770.852764, -4.548385, -9.966463, 3.989189, 0.507875, 1.007356, -2.556038, 156.453201, -30.502243, 148.665405
1648227770.886085, 8.062773, -8.616133, 1.255160, 1.054116, 1.660472, -1.838930, 153.378082, -22.500854, 147.369278
1648227770.919465, 6.173748, -7.025336, 4.108899, 0.413215, -0.091858, -0.351524, 151.528900, -18.924515, 144.358688
1648227770.952773, 1.357213, -3.558831, 0.851288, 0.043975, -0.434525, 1.496460, 150.643784, -18.220016, 140.192444
1648227770.986131, 2.205060, -3.693804, 2.118868, 0.085457, -0.105411, 2.265774, 149.250763, -19.337265, 136.835327
1648227771.019415, 3.132663, -4.288763, 2.401534, -0.120820, 0.639689, 3.227515, 144.374832, -21.682907, 132.964584
1648227771.052777, 2.022502, -5.033210, 2.299631, -0.405102, 0.977809, 4.180556, 139.017426, -24.625397, 130.594482
1648227771.086096, 1.963694, -6.919243, 2.161515, -0.634038, 1.368553, 5.063077, 132.803299, -27.882294, 128.141373
1648227771.119423, 2.885013, -9.362077, 2.600103, -0.835100, 1.054704, 5.797499, 123.568527, -31.795197, 123.250824
1648227771.151821, 3.950582, -11.262325, 4.178181, -0.880292, 0.373125, 6.097381, 117.592316, -33.734009, 119.200195
1648227771.186095, 3.981707, -15.842582, 2.950105, -0.687816, -0.013468, 6.221398, 111.826660, -34.644669, 114.377975
1648227771.219416, 1.874361, -13.353360, 2.788796, -0.284425, 0.119726, 5.383553, 105.932892, -33.846130, 109.158768
1648227771.252772, 0.317531, -14.555998, 1.720084, 0.116101, 1.551551, 4.024280, 102.411880, -32.928650, 105.617249
1648227771.286135, 3.649811, -6.540959, 1.564760, 0.632022, 1.313633, -0.231999, 101.655426, -32.737640, 102.688065
1648227771.319415, 5.721095, -9.713575, 2.439093, 1.019012, 1.450045, -2.590078, 106.789261, -32.376587, 101.446060
1648227771.352792, 9.118018, -11.266814, 3.291728, 0.858836, 0.271974, -3.251495, 112.131058, -31.515244, 100.670105
1648227771.386089, -18.885463, -12.229283, -1.688660, 0.352442, -0.441922, -0.735176, 115.871521, -31.125122, 99.394943
1648227771.419457, 2.473809, -15.953763, 2.026692, 0.601079, 1.725664, -2.706265, 119.230545, -30.134140, 98.543991
1648227771.452756, 6.900987, -15.666010, 0.453103, 0.905702, 0.988664, -2.745348, 123.864761, -28.245865, 99.781067
1648227771.486080, 2.170194, -4.437503, 3.338415, 1.166015, 0.814251, -2.111137, 126.414276, -26.445114, 100.759903
1648227771.519434, 5.064784, -11.099669, 6.105514, 0.405999, -0.731910, -1.345487, 128.505554, -24.939407, 101.128571
1648227771.552756, 1.473631, -9.639804, 1.218499, 0.442992, -2.021873, -0.705306, 131.871078, -23.881668, 99.651154
1648227771.586158, -1.385195, -10.676194, 0.974739, 0.381325, -0.297011, -0.737766, 133.279312, -23.277008, 99.468704
1648227771.619417, 1.836802, -8.779687, 3.878607, 0.333929, -0.586187, -0.560913, 134.309586, -22.479126, 99.853134
1648227771.652780, 1.344793, -8.907927, 4.249259, 0.279311, -0.902052, -0.404450, 135.564682, -21.913635, 99.031204
1648227771.686097, -1.496077, -9.510667, 3.065925, 0.245331, -0.433534, -0.533375, 136.526306, -21.339218, 99.050735
1648227771.719436, 0.333692, -9.374646, 3.751265, 0.185003, -0.513610, -0.591137, 137.514130, -20.842819, 98.676987
1648227771.752751, 0.926406, -9.344270, 2.893393, 0.173762, -0.527656, -0.615672, 138.592392, -20.281235, 98.181458
1648227771.786105, 0.922217, -9.568277, 3.006219, 0.142833, -0.420226, -0.687392, 140.008148, -19.676392, 97.755585
1648227771.819426, 0.004339, -8.625111, 3.146580, 0.130798, -0.565914, -0.847587, 141.311768, -19.022766, 96.910934
1648227771.852758, -1.107767, -9.722703, 3.427300, 0.172756, -0.856522, -1.122376, 142.782715, -17.968796, 96.381546
1648227771.886087, -3.546262, -10.430040, 2.192341, 0.264845, -0.510361, -1.706613, 145.494049, -15.851654, 95.064072
1648227771.919430, -0.411054, -11.859528, 2.028787, 0.347215, -0.544962, -2.287894, 148.108582, -13.667831, 94.611450
1648227771.952764, -0.306607, -13.435661, 3.316568, 0.309951, -0.787540, -2.609511, 150.753815, -10.772369, 93.293579
1648227771.986094, -2.517952, -15.654039, 3.997269, 0.218467, -1.018607, -2.913956, 155.048370, -6.839294, 91.564255
1648227772.019434, -3.188478, -17.339557, 3.001281, 0.084461, -1.987003, -2.857047, 158.921188, -3.956528, 88.965775
1648227772.052769, -7.015460, -16.940174, 0.477793, 0.325103, -2.616050, -2.959920, 162.989532, -2.229263, 83.907120
1648227772.086087, -1.046266, -14.396933, 3.891326, 0.518796, -0.561644, -2.923422, 166.800278, 0.017441, 81.751770
1648227772.119425, 5.602282, -7.766790, 3.405602, 0.881847, 0.997066, -1.963995, 170.591187, 0.318314, 83.650772
1648227772.152792, 0.641197, -6.333711, 1.416769, 0.131458, -0.693702, 0.454312, 172.579651, -3.779114, 84.746155
1648227772.186122, 0.308253, -1.805228, 0.107889, 0.072339, -0.146572, 1.701849, 173.215637, -10.777420, 84.564468
1648227772.219407, 2.154632, -2.709189, 1.299303, -0.038472, 0.145394, 2.636419, 170.403595, -22.702057, 85.089828
1648227772.252324, 2.062156, -3.751115, 1.625663, -0.388355, 0.599085, 4.030028, 164.889893, -32.789703, 85.895645
1648227772.285321, 1.486350, -4.644602, 1.686565, -0.552472, 1.062157, 4.849505, 156.056961, -43.147400, 86.836105
1648227772.319432, 1.357512, -6.705111, 1.620725, -0.682670, 1.582591, 5.453883, 138.988968, -54.342255, 87.109863
1648227772.352767, 2.456002, -10.795306, 2.607585, -0.859409, 1.452200, 6.195364, 123.489670, -58.416718, 86.466156
1648227772.386147, 2.158822, -15.683368, 3.121291, -0.897177, 1.338508, 6.428116, 107.154678, -58.660065, 84.428848
1648227772.419437, 2.437746, -17.854759, 4.647594, -0.998548, 1.678819, 5.815995, 89.086777, -52.786911, 80.918396
1648227772.452759, 3.215712, -16.336835, 4.181623, -0.289677, 1.609461, 4.625196, 80.440369, -46.867218, 78.959442
1648227772.486162, 7.052121, -8.875904, 3.857059, 0.232670, -0.384499, 0.360473, 76.955185, -42.564285, 78.934219
1648227772.519438, 6.701969, -9.096021, 1.153107, 0.804610, 0.343272, -2.412660, 79.489624, -41.792587, 79.709198
1648227772.552766, 2.133234, -15.112500, 5.834221, 0.189211, 0.087674, -2.939103, 85.388824, -42.501678, 80.946808
1648227772.586089, 6.827216, -15.786917, 2.477999, 1.040756, 1.444270, -3.931690, 90.615295, -43.437302, 82.247192
1648227772.619465, 9.909301, -9.301324, 3.182193, 1.008060, 0.646071, -2.898530, 95.932022, -43.733871, 83.867035
1648227772.652762, 4.119374, -8.331074, 5.402815, 0.876430, -0.583123, -2.027397, 100.893387, -43.615891, 85.997635
1648227772.686109, 4.037073, -9.735123, 3.253271, 0.469073, -1.070002, -1.086966, 103.277588, -43.189728, 86.997726
1648227772.719428, 1.823484, -10.585364, 3.232322, 0.229715, -0.369759, -0.762843, 104.870377, -43.090454, 87.469498
1648227772.752776, 1.648109, -9.807847, 3.233070, 0.178445, -0.591431, -0.524110, 106.412750, -42.926056, 88.150543
1648227772.786094, 0.802207, -8.897751, 3.449296, 0.108655, -0.692728, -0.354531, 107.093140, -42.804260, 88.648087
1648227772.819440, -0.562188, -9.683798, 2.198775, 0.129855, -0.251252, -0.500070, 107.861847, -42.675018, 88.908371
1648227772.852763, 0.101604, -8.064868, 2.600402, 0.189308, -0.189163, -0.625350, 109.002899, -42.442596, 88.827393
1648227772.886121, 0.387861, -9.005341, 3.378967, 0.182778, -0.511284, -0.659759, 110.544113, -42.217300, 89.244003
1648227772.918887, -0.007332, -8.914960, 2.517952, 0.202914, -0.360240, -0.921726, 111.657013, -41.885345, 89.691666
1648227772.952846, 1.224036, -9.678261, 3.143437, 0.209380, -0.563808, -0.980102, 113.356522, -41.463242, 90.091537
1648227772.986188, -0.562039, -10.075399, 3.366397, 0.152869, -0.649890, -1.143531, 115.686203, -40.780136, 89.876450
1648227773.018906, -1.755997, -10.694151, 3.953874, 0.148311, -0.910030, -1.558360, 118.101898, -39.773117, 89.828186
1648227773.052788, -1.658882, -11.565341, 2.305317, 0.212137, -0.906114, -2.027706, 121.013565, -38.766785, 89.893143
1648227773.086109, -2.290952, -12.335376, 1.130811, 0.232517, -0.505793, -2.648137, 125.829315, -36.148956, 89.945877
1648227773.118598, -2.757073, -16.324714, 3.477877, 0.142562, -0.848405, -3.194514, 129.893784, -33.319397, 89.719864
1648227773.152767, -4.916493, -18.259529, 3.295469, 0.030614, -1.579267, -3.273314, 134.437225, -29.819412, 89.317307
1648227773.186168, -6.215048, -20.325425, 1.562366, 0.075660, -2.773222, -2.839571, 138.299652, -25.575577, 87.354324
1648227773.219455, 3.285593, -15.281142, 3.918859, 0.257369, -0.192226, -2.725056, 142.114487, -19.014359, 85.508362
1648227773.252778, 6.868516, -6.889914, 2.971055, 0.610779, 1.372079, -2.017952, 143.221420, -14.405624, 87.310684
1648227773.285134, 3.340360, -6.930017, 3.262698, -0.030851, 0.234330, -0.093670, 143.045685, -11.624969, 88.773361
1648227773.319445, 1.642422, -1.954267, 1.770512, -0.097566, 0.378290, 1.529094, 141.816498, -10.006714, 88.654037
1648227773.352845, 1.075445, -2.313846, 1.648707, -0.341922, 0.646247, 2.696336, 140.485062, -10.203690, 88.665146
1648227773.386126, 1.868974, -3.073107, 2.154183, -0.666407, 0.979573, 3.718935, 138.676834, -11.230164, 88.814606
1648227773.419444, 2.901024, -3.175909, 2.291850, -0.920241, 1.093816, 4.634284, 135.334503, -13.562927, 88.734589
1648227773.452847, 2.435202, -4.973206, 1.981950, -1.168078, 1.191510, 5.726999, 132.594040, -15.098816, 88.147232
1648227773.486114, 1.638831, -7.534852, 1.817798, -1.104052, 1.100965, 6.421035, 130.255173, -16.139160, 87.730515
1648227773.519444, 2.505532, -12.945299, 2.971504, -0.943635, 1.631168, 6.825937, 128.449783, -18.075851, 90.762619
1648227773.552778, 5.618892, -20.388273, 4.490026, -1.156652, 2.061460, 6.000132, 127.316452, -21.818451, 96.117325
1648227773.586169, 3.212869, -15.127314, 4.727950, -0.518010, 1.498899, 4.459891, 124.988754, -26.657013, 102.164429
1648227773.619505, 10.663625, -11.611579, 7.581688, -0.041440, 0.355917, 1.608487, 122.061203, -30.256836, 107.909958
1648227773.652781, 5.874922, -8.850615, 3.985598, 1.046325, -0.909846, -2.711988, 126.028275, -29.977020, 113.867172
1648227773.686184, -2.323722, -18.287361, 1.116745, -0.300431, -0.780087, -2.260470, 129.904938, -27.928223, 116.929169
1648227773.719454, -9.108291, -13.050344, -5.549311, 0.741272, 2.444005, -3.061438, 131.305176, -27.692871, 121.798264
1648227773.752833, 8.362198, -12.185289, 3.268983, 1.226026, 1.657285, -3.004175, 131.229965, -25.076004, 129.276062
1648227773.786156, 5.058499, -7.437737, 7.972542, 1.190560, 0.363391, -2.320766, 131.650787, -22.734665, 132.953049
1648227773.819480, 7.745542, -10.624868, 6.697330, 0.447549, -1.533196, -1.499937, 134.512009, -20.842422, 133.663620
1648227773.852662, 1.132457, -9.919028, 0.459387, 0.493268, -1.737407, -0.887446, 139.508926, -19.501297, 132.435410
1648227773.885597, 0.781108, -10.444705, 1.832163, 0.270543, 0.570505, -0.860977, 139.453232, -18.672989, 133.559235
1648227773.918615, 3.365499, -9.435399, 3.632752, 0.275032, -1.001956, -0.513522, 140.530869, -18.181702, 134.101807
1648227773.952776, -0.087388, -8.590994, 3.479972, 0.238318, -0.769933, -0.423967, 142.554123, -17.613800, 133.191818
1648227773.986109, 1.072902, -9.761609, 2.486229, 0.232803, -0.382483, -0.559295, 143.662949, -16.847382, 133.332062
1648227774.019459, -0.132280, -9.133730, 3.098247, 0.243159, -0.492567, -0.643746, 144.902710, -16.154678, 133.156357
1648227774.052780, -0.037709, -8.993070, 3.319411, 0.223226, -0.406608, -0.787151, 146.112244, -15.193588, 133.171371
1648227774.086111, -0.159963, -8.779238, 2.461539, 0.255993, -0.450314, -1.009990, 147.852524, -13.786102, 132.980942
1648227774.119454, 0.413598, -9.613617, 2.745850, 0.257560, -0.381954, -1.189969, 149.100113, -12.532349, 133.191757
1648227774.152855, 0.581641, -10.329334, 3.073706, 0.286993, -0.812155, -1.327049, 150.921158, -10.727707, 132.967728
1648227774.186102, -2.407519, -11.275642, 2.228553, 0.307179, -0.602347, -1.948089, 153.766586, -8.179245, 133.132477
1648227774.219459, -1.108216, -12.470199, 2.366219, 0.333054, -0.726776, -2.421715, 156.006027, -5.574722, 133.422821
1648227774.252856, -1.166275, -13.858238, 2.904466, 0.294826, -0.781644, -2.752396, 158.444672, -2.621323, 133.779526
1648227774.286144, -2.196231, -15.452776, 3.595941, 0.152558, -1.055340, -3.057445, 161.050400, 0.547882, 133.847702
1648227774.319448, -2.430115, -19.624523, 3.528455, 0.062418, -2.988913, -2.605645, 166.952271, 3.708145, 131.688477
1648227774.352777, -7.783699, -16.431406, 1.681478, 0.269976, -1.966735, -3.102302, 172.308365, 6.389023, 128.356964
1648227774.386116, 2.301875, -13.871556, 5.202301, 0.563008, -0.124623, -2.724494, 173.849640, 10.626358, 129.689697
1648227774.419459, 12.146234, -7.279271, 5.756409, 0.314696, 0.801867, -1.067063, 173.177597, 14.318588, 132.526321
1648227774.452270, 1.891719, -5.773617, 1.639280, -0.029706, -0.751811, 0.805850, 175.152939, 13.111496, 131.634674
1648227774.486125, 1.419612, -1.136797, 0.139911, -0.002987, 0.081591, 1.896458, 177.321869, 8.799286, 131.200287
1648227774.519449, 1.704672, -1.897405, 0.956783, -0.084890, 0.658008, 3.264307, 179.029602, -0.229477, 131.742737
1648227774.552801, 2.840271, -3.019088, 1.274912, -0.301846, 0.858418, 4.282702, 178.287796, -10.026474, 132.394165
1648227774.586109, 2.174983, -4.115333, 1.176301, -0.551160, 0.959972, 5.165668, 175.795456, -22.760468, 133.137543
1648227774.619449, 1.168370, -7.210587, 0.982670, -0.792715, 1.269075, 5.875638, 168.056824, -42.133270, 133.445786
1648227774.651983, 1.063175, -10.660183, 1.237802, -0.903682, 1.846211, 6.418915, 157.347366, -57.294373, 133.761566
1648227774.686118, 2.284817, -16.986711, 3.609558, -1.132143, 2.647844, 6.449453, 140.785278, -71.903503, 133.897232
1648227774.719453, 4.952855, -18.838028, 5.432294, -1.486968, 2.062602, 5.282422, 120.245285, -83.873871, 132.488327
1648227774.752792, 6.874501, -14.017003, 8.123676, -0.385993, 1.523892, 3.748029, 94.291962, -90.100906, 129.241974
1648227774.786114, 8.497471, -8.593837, 7.040150, 0.331491, -1.231142, -0.116616, 87.263428, -90.346970, 129.688416
1648227774.819454, 6.807912, -8.699631, 3.377021, 0.818202, -0.762479, -2.662625, 91.726242, -90.888672, 132.081528
1648227774.852831, -18.950555, -19.150621, -6.147861, 0.533138, -0.184023, -1.873147, 98.145874, -91.789185, 132.785599
1648227774.886184, 8.299051, -14.774618, 2.676269, 1.302690, 2.297909, -3.999280, 101.344055, -90.903946, 133.396912
1648227774.919443, 10.033201, -9.891495, 4.618864, 1.309194, 1.388106, -2.936095, 105.757248, -89.309464, 135.521591
1648227774.952775, 5.833921, -9.000852, 7.313688, 0.710297, -0.858838, -1.826283, 112.024399, -86.613312, 138.211761
1648227774.986109, 4.321684, -10.486454, 1.480215, 0.558158, -1.970064, -1.029252, 118.171295, -85.228058, 138.734039
1648227775.019512, -1.953669, -10.280103, 1.609652, 0.399873, -0.159214, -0.939867, 121.636795, -84.231537, 138.690674
1648227775.052782, 3.536984, -9.554810, 3.586514, 0.309184, -0.641792, -0.666959, 122.983383, -83.321213, 139.349197
1648227775.086108, 1.247379, -8.642021, 4.021660, 0.281215, -1.055560, -0.432886, 126.828629, -82.328537, 139.360001
1648227775.119452, -1.288829, -9.808745, 2.148946, 0.206520, -0.259356, -0.623966, 128.711884, -81.317871, 138.798691
1648227775.152793, 0.958130, -9.404723, 2.871845, 0.232762, -0.528158, -0.739863, 130.745087, -80.427460, 138.785049
1648227775.186121, -0.247501, -8.512285, 2.624494, 0.211285, -0.369683, -0.968823, 133.899399, -78.968567, 138.670853
1648227775.219442, 0.652719, -8.951621, 3.684377, 0.264124, -0.503397, -0.958334, 136.603378, -77.683304, 138.696564
1648227775.252793, 0.856376, -9.232491, 1.884237, 0.231284, -0.573053, -1.116699, 139.529572, -76.232117, 138.256042
1648227775.286119, -0.061501, -8.766220, 3.794211, 0.252330, -0.641222, -1.392355, 144.315613, -73.994156, 137.471039
1648227775.318777, -0.517896, -10.082133, 4.382885, 0.234363, -0.565478, -1.625501, 148.127258, -71.603287, 136.950058
1648227775.352848, 0.236727, -13.421895, 2.126201, 0.192914, -0.711000, -1.966063, 151.837189, -68.837402, 136.104126
1648227775.386177, -1.753453, -14.338126, 1.281197, 0.258422, -0.747524, -2.685944, 158.087128, -63.398605, 133.181808
1648227775.419563, -3.624821, -16.519991, 3.339612, 0.210379, -1.142077, -3.121197, 162.747742, -58.051651, 130.095154
1648227775.451932, -3.301454, -18.276138, 3.042881, 0.195319, -2.423063, -2.866227, 167.731262, -51.900803, 124.168198
1648227775.485978, -6.110601, -14.017003, 1.726818, 0.519137, -1.483434, -3.466834, 171.527557, -45.498489, 116.562347
1648227775.518893, 4.225916, -15.452477, 7.009175, 0.042770, -0.675223, -2.770638, 172.185013, -34.873703, 111.587708
1648227775.552055, 7.917775, -8.489091, 4.072238, -0.123121, 0.402545, -1.573620, 170.976761, -28.680038, 108.326538
1648227775.586120, -0.957830, -3.974375, 2.483984, -0.136937, 0.972775, 0.458428, 168.627014, -25.735092, 106.798264
1648227775.619458, 3.734057, -2.688838, 2.836830, -0.241788, 1.023169, 1.576711, 164.398468, -25.897934, 106.224960
1648227775.652785, 2.707244, -2.329857, 2.261024, -0.529395, 0.813392, 2.854641, 160.657425, -28.832397, 105.078568
1648227775.686154, 2.175132, -2.833238, 1.534683, -0.904627, 0.716074, 3.903790, 156.567566, -34.034180, 103.932343
1648227775.719450, 2.030882, -3.999065, 2.254440, -1.131782, 1.170579, 5.032313, 147.584549, -42.672745, 102.091339
1648227775.752861, 1.092355, -5.325303, 2.659808, -1.039535, 1.606120, 5.755288, 138.342789, -49.026825, 100.719589
1648227775.786128, 1.571344, -8.267927, 2.585139, -0.563309, 1.724478, 6.331642, 127.009888, -54.245239, 99.508820
1648227775.819466, 5.340117, -17.781287, 5.637297, -0.886397, 0.965214, 6.921091, 114.050171, -57.095657, 98.107376
1648227775.852810, 2.328660, -17.678486, 4.332009, -0.455231, 0.861976, 5.721790, 98.518326, -57.015045, 95.751099
1648227775.886144, 2.417246, -15.055788, 3.652804, 0.021036, 1.664092, 4.282329, 90.154465, -55.280334, 94.959534
1648227775.919468, 8.964340, -8.259696, 4.297442, 0.457639, -0.085032, 0.183428, 86.556305, -54.319092, 94.682571
1648227775.952795, 8.187721, -9.614665, 3.506159, 0.805346, -0.025383, -2.151134, 90.925827, -55.422394, 96.837967
1648227775.986134, 3.069516, -16.304214, 3.240402, -0.101709, -0.022398, -2.948359, 96.686615, -56.647659, 97.653229
1648227776.019464, 7.127838, -16.653169, 0.596904, 1.200339, 2.461269, -3.982143, 102.687515, -57.444702, 98.995178
1648227776.052794, 8.348282, -9.000403, 3.763086, 1.092982, 1.784283, -3.129997, 110.151718, -56.885681, 102.058228
1648227776.086167, 6.693739, -7.049278, 8.665813, 0.947540, -0.783757, -2.011101, 114.585632, -56.084579, 103.943756
1648227776.119461, 2.707992, -9.788095, 2.227056, 0.486390, -2.454918, -0.842075, 118.632248, -55.470016, 104.246643
1648227776.152822, -2.471415, -11.113884, 2.146701, 0.300384, 0.241145, -0.962365, 121.613876, -54.814392, 104.504318
1648227776.186119, 2.698864, -9.072229, 3.520973, 0.261445, -0.233638, -0.727655, 123.477310, -54.418396, 105.389297
1648227776.219484, 2.410063, -8.486996, 4.426879, 0.211270, -1.395181, -0.386397, 125.070236, -53.746445, 104.836365
1648227776.252814, -1.415721, -9.648932, 2.384625, 0.167929, -0.233788, -0.658189, 126.494736, -53.337967, 104.832718
1648227776.286145, 0.661398, -8.971523, 2.969409, 0.185966, -0.494754, -0.751741, 128.670151, -52.581711, 104.736267
1648227776.319518, 0.424073, -8.726865, 2.869750, 0.208447, -0.538152, -0.883732, 130.862762, -51.989243, 104.954483
1648227776.352809, -1.322348, -8.852561, 3.218705, 0.295570, -0.107685, -1.162884, 132.875931, -51.120697, 104.941757
1648227776.386126, 3.166332, -9.272893, 2.353201, 0.331679, -0.623786, -1.256228, 136.098389, -49.534805, 105.632965
1648227776.419518, -1.056591, -10.091710, 3.074005, 0.322221, -0.619952, -1.438038, 138.892441, -48.202560, 105.084229
1648227776.452787, 0.012420, -11.022904, 3.824887, 0.306940, -0.786931, -1.861718, 142.272598, -46.419800, 105.279282
1648227776.486133, -1.530344, -13.313407, 2.274940, 0.306926, -0.757720, -2.353904, 147.570328, -43.196396, 104.622910
1648227776.519455, -1.262941, -15.160235, 2.150143, 0.234801, -0.987101, -2.793518, 152.269592, -39.892105, 103.477585
1648227776.552801, -4.405481, -17.088614, 3.698443, -0.039086, -1.419304, -3.219301, 157.179504, -35.649689, 101.385483
1648227776.586123, -3.127276, -19.301006, 2.640206, -0.099321, -2.830336, -2.694460, 161.554138, -31.682770, 97.968887
1648227776.619492, -6.112397, -15.041572, 2.863914, 0.114015, -1.157347, -3.181381, 166.034027, -25.951309, 93.079025
1648227776.652806, 3.141043, -13.482198, 5.721244, 0.252318, 0.436268, -2.394238, 166.490112, -21.533661, 93.612839
1648227776.686204, 8.192958, -6.295703, 6.374562, 0.081178, 0.638727, -0.518583, 165.595886, -18.677856, 95.074921
1648227776.719460, 0.329053, -4.518008, 1.356166, -0.028488, -0.205641, 1.185874, 162.416504, -19.370941, 94.472641
1648227776.752870, 2.145803, -1.811962, 1.296311, -0.055556, -0.098326, 2.216337, 158.940262, -21.210678, 93.701736
1648227776.786121, 1.418415, -3.038691, 1.163432, -0.220509, 0.436547, 3.707088, 154.253082, -24.134491, 93.260773
1648227776.819466, 2.007688, -3.974824, 1.123030, -0.409080, 0.667818, 4.633582, 146.845490, -28.363358, 93.420776
1648227776.852791, 2.378190, -5.066580, 0.941520, -0.556840, 0.974980, 5.364748, 140.864914, -31.006973, 93.629623
1648227776.886134, 0.673968, -8.847772, 1.219696, -0.873857, 1.055688, 6.204222, 135.034302, -33.072021, 93.231689
1648227776.919464, 2.046893, -13.613730, 1.778293, -0.921525, 1.754281, 6.632226, 129.579895, -35.592224, 93.499207
1648227776.952812, 4.354305, -18.504485, 3.920505, -1.121027, 1.862226, 6.321304, 122.735306, -40.237137, 94.332077
1648227776.986127, 4.380342, -15.511135, 3.912724, -0.687958, 1.662879, 4.608591, 117.468979, -44.609375, 94.860992
1648227777.019516, 11.517008, -13.464392, 5.843947, -0.383608, 0.807023, 2.534357, 113.197586, -48.583328, 95.579208
1648227777.052845, 6.107160, -6.766762, 5.023035, 0.453465, -0.742049, -0.962340, 114.607193, -51.965759, 97.262451
1648227777.086172, 5.569661, -14.810083, 2.677316, 0.301073, 0.162763, -3.044808, 120.116089, -52.741257, 98.868530
1648227777.119290, -20.083461, -20.542250, -7.690026, 0.856958, 0.913231, -2.996908, 125.026794, -54.040848, 99.812378
1648227777.152203, 10.357316, -12.129475, 4.439448, 1.360811, 0.827485, -3.833147, 132.022095, -52.506226, 104.856293
1648227777.186137, 11.366173, -4.745607, 6.360795, 1.224217, 0.824955, -2.313962, 135.655594, -50.593353, 107.871292
1648227777.219465, 6.322039, -12.447903, 5.429002, 0.342911, -1.202179, -1.540992, 139.328400, -48.932938, 109.008453
1648227777.252801, 2.111836, -10.172514, 0.688483, 0.371767, -1.789216, -0.836494, 142.672974, -47.812592, 107.595352
1648227777.286143, -1.049409, -10.780342, 1.631648, 0.223917, 0.257054, -0.866575, 144.884796, -46.767960, 107.678040
1648227777.319480, 2.860323, -9.250297, 3.908235, 0.143488, -0.446333, -0.606361, 145.906174, -46.170547, 108.190903
1648227777.352871, 1.586757, -8.630498, 3.394080, 0.088021, -0.887655, -0.421530, 147.392426, -45.721741, 107.489258
1648227777.386136, -1.661726, -9.557054, 1.912219, 0.145340, -0.351283, -0.575005, 148.974258, -45.013657, 106.851151
1648227777.419470, 1.330129, -9.065495, 2.517503, 0.213288, -0.399154, -0.713839, 150.161789, -44.352203, 106.820999
1648227777.452812, -0.065242, -8.747216, 2.758270, 0.254038, -0.527939, -0.867948, 151.871384, -43.433823, 106.526047
1648227777.486132, 0.002394, -9.458294, 2.588431, 0.237006, -0.280187, -1.047682, 153.989639, -41.686523, 106.786591
1648227777.519462, -0.995838, -9.776124, 1.992425, 0.282108, -0.660908, -1.326293, 156.003830, -40.167633, 106.286545
1648227777.552820, -3.202843, -10.361357, 2.661604, 0.321743, -0.228560, -1.897156, 158.776199, -38.060181, 106.498566
1648227777.586132, -0.916530, -12.111069, 3.235913, 0.293677, -0.526542, -2.296613, 162.939133, -34.141769, 106.694641
1648227777.619465, -1.606210, -13.921834, 1.966837, 0.193841, -0.411617, -2.826043, 166.433090, -30.118622, 106.522964
1648227777.652801, -1.891419, -15.291467, 3.047968, 0.066545, -0.803543, -3.295358, 169.938675, -25.244125, 106.616486
1648227777.686203, -4.028843, -18.046295, 3.316269, -0.050663, -1.701472, -3.282439, 173.650009, -19.816010, 104.960861
1648227777.719466, -6.122871, -20.478355, 1.796699, -0.104185, -3.043261, -2.737494, 178.789444, -13.636276, 99.247833
1648227777.752802, -0.245106, -13.862877, 5.411644, -0.180502, 0.353722, -3.000146, 181.430588, -8.016937, 99.316605
1648227777.786134, 6.397307, -8.289474, 3.709965, 0.418301, 0.903474, -1.705822, 182.476059, -4.734146, 102.849152
1648227777.819479, 6.832453, -6.867767, 4.414459, -0.298998, 0.013346, 0.123091, 183.123367, -6.084869, 106.964905
1648227777.852810, 1.217302, -1.689558, 0.394594, -0.156962, -0.178699, 2.370629, 182.947144, -13.151505, 107.796371
1648227777.886144, 1.940201, -2.184559, 1.043722, -0.106135, -0.123820, 3.308100, 180.925537, -22.658218, 109.025665
1648227777.919464, 2.178125, -3.061735, 0.907103, -0.115393, 0.344923, 4.323804, 172.784729, -38.779800, 111.459564
1648227777.952804, 1.388487, -4.214393, 0.897975, -0.196565, 0.995237, 5.346775, 161.306839, -51.401031, 114.750320
1648227777.986141, 1.125424, -6.849212, 1.495029, -0.389232, 1.348852, 5.955025, 144.439545, -61.731171, 117.681015
1648227778.019509, 1.452383, -10.390686, 0.365116, -0.448278, 1.444102, 6.451625, 122.917389, -67.058334, 119.627518
1648227778.052824, 2.399439, -16.648381, 4.472967, -0.761790, 2.013165, 6.467122, 92.752136, -62.454544, 119.006668
1648227778.086143, 3.965396, -18.805407, 3.878307, -1.164820, 2.204428, 5.285905, 75.896164, -53.126251, 115.784790
1648227778.119469, 7.364714, -15.215600, 7.092224, -0.633589, 1.684359, 3.881911, 66.394989, -43.603638, 112.783081
1648227778.152806, 12.613552, -9.633968, 6.668301, 0.270139, -1.753173, 0.814309, 66.089508, -35.366531, 115.134705
1648227778.185729, 6.348974, -9.163508, 2.890250, 0.785602, -0.865772, -2.797743, 71.611191, -33.887894, 118.629623
1648227778.219514, -10.292374, -19.899706, -3.534739, -0.085268, -1.527002, -1.492239, 76.934586, -33.778473, 120.007446
1648227778.252803, 0.130185, -16.284013, -3.548057, 1.182357, 3.333577, -3.951300, 79.908524, -34.544449, 120.192688
1648227778.286142, 10.830620, -10.462961, 5.959018, 1.269863, 1.242797, -2.913294, 82.288864, -35.427048, 121.632217
1648227778.319519, 2.906112, -5.080496, 9.667786, 0.952526, -0.751348, -1.940745, 85.197891, -35.362152, 123.292587
1648227778.352827, 6.802226, -11.618312, 5.598990, 0.266009, -2.609264, -1.067359, 89.718674, -35.066925, 125.100098
1648227778.386135, -4.008492, -10.334123, 1.247379, 0.298799, -0.096568, -0.929285, 94.403900, -35.004990, 126.613907
1648227778.419483, 0.108038, -9.842264, 2.102259, 0.282565, 0.474851, -0.955645, 94.925812, -35.115250, 126.936249
1648227778.452808, 4.286668, -8.234408, 4.914697, 0.234161, -1.264268, -0.473880, 96.959335, -34.984055, 127.425415
1648227778.486136, -2.260725, -9.377489, 2.162862, 0.174842, -0.284513, -0.671587, 99.615570, -34.627319, 127.841461
1648227778.519490, 0.913687, -9.627983, 2.960580, 0.166233, -0.316614, -0.748775, 101.021820, -34.550430, 128.551987
1648227778.552865, 0.596455, -8.889970, 2.813935, 0.179380, -0.525193, -0.803959, 102.794403, -34.090439, 128.486649
1648227778.586137, -0.355389, -9.053823, 2.310854, 0.199138, -0.407430, -1.011744, 105.270355, -33.608475, 128.801300
1648227778.619523, 0.699406, -9.281272, 2.335693, 0.236036, -0.377030, -1.279942, 107.378372, -33.045166, 129.087357
1648227778.652842, -0.514304, -9.482685, 2.961627, 0.249237, -0.508304, -1.552349, 109.763123, -32.327927, 129.274353
1648227778.686185, -2.282871, -11.146804, 3.364901, 0.250906, -0.273037, -1.981907, 113.251434, -30.855270, 129.793304
1648227778.719468, -0.935834, -13.662661, 1.997961, 0.234357, -0.498484, -2.590170, 116.855240, -29.330551, 129.882111
1648227778.752502, -2.486229, -13.765313, 2.624793, 0.240673, -0.562248, -3.109755, 120.642593, -27.339294, 130.344864
1648227778.785460, -2.248455, -15.230714, 3.490297, 0.219568, -1.164573, -3.378850, 125.802658, -24.589569, 129.529266
1648227778.819509, -0.915333, -20.186262, 3.464859, 0.050154, -3.533050, -2.681659, 134.751770, -20.826096, 126.544632
1648227778.852813, -6.041319, -14.032117, 2.515707, 0.212684, -1.813989, -3.325583, 141.838776, -17.244751, 122.900131
1648227778.886140, 0.810288, -13.918392, 4.768053, 0.327945, -0.354782, -2.244823, 144.863373, -13.980698, 121.149887
1648227778.919482, 8.235754, -7.226299, 4.780323, 0.199429, 1.460437, -0.615632, 144.912262, -12.518906, 119.658142
1648227778.952867, 1.908328, -5.006126, 2.682104, 0.130649, 0.977486, 1.076872, 143.122192, -14.523209, 118.509781
1648227778.986152, 2.731934, -1.305588, 2.325219, 0.085650, 1.430927, 2.097711, 138.861420, -17.581711, 117.510773
1648227779.019476, 3.248932, -2.043152, 2.583493, -0.287515, 0.984713, 3.396269, 130.712692, -22.396744, 114.567963
1648227779.052892, 2.973000, -3.677494, 1.527201, -0.771340, 0.259974, 4.916716, 123.465179, -25.004684, 111.808304
1648227779.086159, 2.865710, -4.074931, 1.506551, -0.795340, 0.116743, 5.588284, 115.575562, -25.503967, 107.716339
1648227779.119526, -0.052822, -7.040449, 1.118990, -0.773004, 0.814840, 6.333800, 108.023697, -23.718002, 104.042572
1648227779.152817, 2.638111, -13.087454, 1.912518, -0.529640, 1.843084, 6.418801, 99.811081, -19.519424, 98.265793
1648227779.186191, 4.362535, -18.212991, 3.172018, -0.875224, 2.054923, 6.221502, 95.818665, -17.035812, 92.590714
1648227779.219477, 2.020706, -16.947207, 3.034501, -0.892329, 2.368042, 5.392339, 92.492752, -14.983429, 85.871658
1648227779.252820, 10.315567, -13.079224, 6.920889, -0.194174, 1.151094, 2.770095, 90.451370, -12.249496, 76.758301
1648227779.286147, 7.580491, -7.806295, 6.559813, 0.446662, -1.344579, -1.163522, 91.859146, -11.534027, 72.895798
1648227779.319501, 8.653842, -9.451710, 1.350330, 0.959291, -0.240070, -3.418194, 94.516388, -11.948502, 69.739700
1648227779.352810, -23.877822, -15.897948, -4.165462, 0.629058, 0.080291, -1.677541, 97.691544, -11.398392, 65.346588
1648227779.386222, 9.443629, -19.573047, 0.846949, 0.886446, 2.046145, -3.874197, 102.189713, -11.818604, 62.013184
1648227779.419478, 7.084592, -8.358906, 1.420959, 1.219758, 1.014610, -2.976744, 105.805435, -11.802811, 60.770569
1648227779.452993, 6.074539, -7.301268, 9.476549, 1.038137, -0.111505, -2.271646, 108.210739, -11.789246, 59.792587
1648227779.486144, 4.872500, -9.491812, 3.440468, 0.443507, -1.982652, -1.135093, 109.143311, -11.700409, 59.237198
1648227779.519483, -0.728436, -10.227581, 2.270601, 0.346439, -0.417276, -0.997284, 109.532516, -11.828094, 59.078247
1648227779.552825, 2.808997, -10.127623, 2.203414, 0.288357, 0.073130, -0.788764, 110.578934, -11.762909, 58.837112
1648227779.586156, 2.655170, -8.506000, 4.318092, 0.151196, -1.163383, -0.335109, 110.642120, -11.838867, 58.518860
1648227779.619542, -0.437091, -9.294291, 2.855834, 0.141873, -0.707589, -0.371586, 110.329178, -11.774048, 58.665955
1648227779.652890, -0.144700, -9.660454, 2.971055, 0.111216, -0.498870, -0.478299, 110.586700, -11.720657, 58.210052
1648227779.686160, 0.460734, -8.784027, 3.226486, 0.127623, -0.591814, -0.590925, 110.864670, -11.718872, 58.088242
1648227779.719571, -0.299126, -8.809315, 2.906860, 0.126151, -0.510292, -0.778887, 111.493027, -11.680740, 57.948776
1648227779.752821, 0.427814, -9.376891, 2.689736, 0.130267, -0.504472, -0.984728, 112.135468, -11.638565, 57.696899
1648227779.786161, -1.299004, -10.097097, 2.493711, 0.168105, -0.491426, -1.348859, 113.235611, -11.321182, 57.159760
1648227779.819487, -2.107496, -10.349386, 2.182016, 0.250739, -0.414588, -1.850730, 114.532272, -10.725525, 56.065582
1648227779.852824, -1.001524, -11.792940, 2.654870, 0.243178, -0.373940, -2.293258, 116.316544, -10.048752, 54.842560
1648227779.886151, -1.093552, -13.652336, 2.978836, 0.166574, -0.580072, -2.765583, 118.284775, -8.936111, 54.012146
1648227779.919506, -1.830816, -15.384392, 3.689165, 0.078682, -0.981526, -3.107234, 121.362930, -6.166763, 52.162399
1648227779.952821, -4.624401, -18.694076, 4.709993, -0.019503, -2.067772, -3.022077, 123.861465, -3.724335, 49.680389
1648227779.986159, -6.839785, -19.978565, 2.570924, 0.038001, -3.135161, -2.846386, 125.231445, -1.233856, 46.678192
1648227780.018600, 0.452354, -16.185402, 3.270629, 0.167587, 0.656676, -2.689244, 129.986176, 3.251801, 43.717575
1648227780.052839, 6.566846, -7.754670, 1.883937, 0.800799, 1.961064, -1.968719, 135.736557, 5.650864, 43.281250
1648227780.086113, 4.895544, -6.936900, 2.604891, -0.067194, 0.269063, 0.290015, 140.930527, 6.344452, 43.959671
1648227780.119589, 1.784279, -0.574908, 0.577152, -0.000955, 0.372324, 2.129581, 146.010269, 4.035172, 44.572266
1648227780.152852, 2.803760, -2.011728, 1.578527, -0.213382, 0.088783, 3.210964, 148.677551, 0.271179, 44.964630
1648227780.186156, 3.472191, -3.135357, 0.740257, -0.496087, -0.034756, 4.320475, 150.136002, -5.406738, 45.362106
1648227780.219482, 2.173037, -3.304447, 0.641945, -0.622261, 0.386601, 5.465618, 149.897659, -12.341446, 45.708527
1648227780.252917, 1.111957, -6.281787, 0.910545, -0.752653, 1.061299, 6.215877, 146.871887, -22.656525, 46.511734
1648227780.286197, 0.177021, -9.993398, 0.005387, -0.706035, 1.745072, 6.722465, 142.468018, -29.839493, 47.753311
1648227780.319562, 4.499603, -19.821446, 5.859509, -1.109523, 2.089234, 6.588620, 136.818039, -35.821625, 49.598618
1648227780.352698, 3.952827, -18.990808, 4.023905, -1.372034, 1.731756, 5.498047, 128.796860, -40.949417, 50.048386
1648227780.385709, 4.032883, -14.025383, 5.392640, -0.378670, 2.197933, 3.838171, 125.112671, -43.435440, 50.818695
1648227780.418750, 13.150602, -8.800337, 8.129512, 0.181692, -1.311433, 0.375622, 123.615433, -45.127075, 51.282410
1648227780.451961, 5.870732, -8.538322, 1.958008, 0.973900, -0.581501, -3.328240, 128.033524, -45.543762, 52.012344
1648227780.486153, 6.464644, -10.887632, 3.279458, 0.202756, 0.374239, -2.992236, 134.441483, -44.466354, 52.990433
1648227780.519491, -28.238112, -14.056208, -6.674585, 0.629032, 1.368600, -1.717244, 137.138214, -44.385605, 53.446213
1648227780.552823, 13.120824, -18.158673, 2.660257, 1.200027, 1.122195, -3.263965, 145.119400, -42.666916, 57.745651
1648227780.586171, 8.217199, -6.020070, 2.880524, 1.272089, 0.697443, -2.268463, 151.614166, -39.721298, 62.208298
1648227780.619510, 4.846313, -9.730933, 10.705224, 0.611372, -0.361492, -1.650866, 154.971680, -37.915985, 63.132492
1648227780.652828, 1.374571, -9.952247, 1.343446, 0.347851, -2.194135, -0.620982, 155.249878, -37.016052, 61.094894
1648227780.686163, -0.779462, -11.407174, 0.727987, 0.235597, 0.183386, -0.740725, 155.719437, -36.041901, 60.192978
1648227780.718508, 2.050334, -9.629180, 2.817826, 0.202030, -0.081368, -0.587541, 156.806168, -35.521561, 60.628006
1648227780.752837, 0.667234, -8.462006, 3.154510, 0.188435, -0.998542, -0.335524, 156.457932, -35.023590, 59.599243
1648227780.785760, -2.476203, -9.682600, 2.567033, 0.162256, -0.053651, -0.544788, 157.063080, -34.289093, 59.114822
1648227780.819514, 0.901866, -9.225906, 3.075053, 0.162806, -0.489399, -0.620439, 157.812317, -33.820190, 58.912643
1648227780.852545, -0.492607, -9.039608, 2.559551, 0.169212, -0.437497, -0.804589, 158.495743, -32.957642, 58.252930
1648227780.886166, -1.013346, -8.823232, 2.565387, 0.246116, -0.114393, -1.114316, 160.249023, -30.990433, 58.278687
1648227780.919204, 1.057339, -9.723751, 3.107823, 0.225220, -0.278877, -1.242269, 161.820068, -29.706100, 58.646255
1648227780.952280, 0.329801, -10.265439, 2.792687, 0.215729, -0.685212, -1.388932, 163.328461, -27.967499, 57.515854
1648227780.986214, -1.569998, -10.709863, 2.657713, 0.238331, -0.501366, -1.884051, 165.101990, -25.785187, 57.053375
1648227781.019553, -0.324414, -12.572103, 2.776526, 0.219868, -0.542278, -2.243990, 168.153107, -21.766220, 56.728882
1648227781.052837, -0.714370, -13.578715, 1.722628, 0.180016, -0.736970, -2.643792, 170.245010, -17.680069, 55.738419
1648227781.086179, -3.140295, -16.196625, 3.845986, 0.018923, -0.859970, -3.147861, 173.050217, -12.940933, 55.220352
1648227781.119494, -2.965368, -18.803312, 4.148104, -0.081442, -2.419561, -2.847269, 175.803726, -6.385910, 52.223572
1648227781.152835, -5.751172, -20.982035, 3.606566, -0.055723, -3.564133, -2.595726, 176.250595, -3.266312, 46.550674
1648227781.186143, -1.805527, -14.413094, 3.564517, 0.544811, 0.237714, -3.087806, 180.001923, 1.186081, 47.348862
1648227781.219482, 12.490999, -7.130681, 7.201310, 0.364802, 1.604890, -1.574968, 185.664673, 1.383255, 55.442947
1648227781.252837, 2.644096, -6.461801, 1.824531, -0.057403, 0.180023, 0.523263, 187.762573, -3.560471, 60.024170
1648227781.286162, 3.193566, -0.189740, 1.368885, 0.275587, 0.082788, 1.988185, 187.965164, -11.946365, 63.384964
1648227781.319531, 3.245490, -1.356016, 0.994940, 0.149745, 0.118854, 3.126742, 185.809769, -22.656052, 66.068497
1648227781.352403, 2.724452, -1.715894, 0.891092, -0.057538, 0.310056, 4.199001, 178.001877, -39.615891, 69.602890
1648227781.386162, 1.531541, -2.419939, 0.636858, -0.121938, 0.887070, 5.047576, 167.706512, -52.813843, 72.224655
1648227781.419498, 1.097442, -5.713613, 1.235258, -0.279284, 1.823184, 5.889487, 152.211075, -64.041672, 76.148697
1648227781.452831, 0.898873, -9.573964, 2.028338, -0.629915, 2.022404, 6.573081, 125.254654, -70.620361, 77.929611
1648227781.486163, 4.430919, -14.764742, 2.494758, -0.644221, 1.416319, 6.820531, 105.666306, -66.305496, 77.877182
1648227781.519501, 3.901651, -19.784485, 2.501492, -1.113308, 1.927846, 5.893251, 92.474136, -58.178009, 76.718414
1648227781.552827, 1.686865, -17.345991, 3.919458, -0.692065, 2.152683, 3.971931, 85.413834, -49.302780, 75.354752
1648227781.586204, 13.021464, -8.584709, 4.809801, 0.308168, -0.569691, 0.770792, 85.638596, -46.892853, 77.646957
1648227781.619497, 7.147291, -9.437195, 2.237830, 0.777883, -0.375889, -3.005565, 90.271301, -47.283875, 80.560287
1648227781.652832, -2.168997, -17.447894, 5.331438, -0.372196, -1.278025, -1.478172, 97.058334, -47.511505, 82.633087
1648227781.685411, -9.766697, -16.504130, -3.177854, 0.575649, 1.542714, -3.195332, 102.042801, -47.846176, 84.696106
1648227781.719567, 10.825532, -14.294731, 3.251176, 1.236489, 0.979477, -3.180321, 107.854858, -47.906433, 87.703232
1648227781.751849, 5.073463, -4.296993, 6.422596, 1.135471, 0.491905, -2.062891, 112.538239, -47.201080, 90.153900
1648227781.786163, 3.137003, -10.923096, 7.387309, 0.436086, -0.987518, -1.506213, 116.626846, -46.252457, 92.390244
1648227781.819518, 2.493860, -9.911247, 1.602020, 0.284263, -1.990474, -0.806686, 119.060043, -45.798904, 92.660049
1648227781.852921, -0.093075, -10.678289, 1.667561, 0.231044, 0.196650, -0.738544, 120.607559, -45.421753, 92.686737
1648227781.885739, 1.994520, -9.565733, 3.286191, 0.164404, -0.765637, -0.501360, 122.109344, -45.143295, 93.152542
1648227781.919549, 0.287753, -8.648605, 3.804536, 0.133328, -0.862541, -0.468261, 123.277893, -44.826065, 92.821091
1648227781.952883, 0.061950, -9.002498, 2.970157, 0.121586, -0.265788, -0.689443, 124.367874, -44.394821, 93.079590
1648227781.985913, -0.690428, -8.852411, 2.709937, 0.172225, -0.553099, -0.757968, 126.245361, -43.672501, 93.231583
1648227782.018919, -0.268599, -9.822512, 2.936039, 0.148675, -0.349803, -0.919503, 127.939331, -43.255508, 93.443436
1648227782.052832, -0.420631, -8.730007, 2.188300, 0.219727, -0.387107, -1.212609, 130.025177, -42.434967, 93.730194
1648227782.086164, -1.686565, -8.976610, 2.823961, 0.306918, -0.293791, -1.509048, 132.150955, -41.208389, 94.266876
1648227782.119495, -0.775572, -10.153510, 3.231574, 0.311211, -0.485029, -1.808930, 136.106018, -39.078812, 94.864929
1648227782.152841, 0.454449, -11.642703, 2.951153, 0.319368, -0.718432, -2.227614, 139.544815, -36.883514, 95.363449
1648227782.186147, 0.293439, -13.968371, 2.331653, 0.229031, -0.684374, -2.559545, 143.395920, -34.302856, 95.531525
1648227782.219503, -1.348384, -14.288296, 1.880795, 0.173518, -0.833765, -2.968746, 149.016251, -29.608719, 95.671387
1648227782.252835, -3.798551, -17.366042, 3.723283, 0.107422, -1.274424, -3.297895, 153.682877, -25.248245, 95.116272
1648227782.286248, -6.868067, -22.440553, 2.744952, -0.091027, -3.463118, -2.720452, 158.636688, -21.030701, 91.892441
1648227782.319500, -6.088156, -13.463494, 5.920113, -0.139171, -0.352058, -3.612375, 164.146439, -14.604813, 90.413940
1648227782.352889, 6.272958, -11.615170, 4.481048, 0.235934, 1.239110, -2.803517, 166.095200, -10.158005, 94.136047
1648227782.386164, 6.330419, -7.248446, 4.496909, -0.288449, 0.648976, -0.272246, 166.111771, -9.093842, 97.828918
1648227782.419495, 2.653374, -2.937835, 1.956063, -0.333280, 0.200295, 1.245626, 165.178604, -11.686554, 98.983337
1648227782.452837, 3.686322, -0.718111, 2.213439, -0.508020, -0.112843, 2.365880, 161.314362, -18.010101, 100.452942
1648227782.486223, 2.593818, -1.086070, 1.086519, -0.674502, 0.103746, 4.020707, 156.042480, -24.377350, 100.858780
1648227782.519498, 2.505382, -1.741782, 1.176002, -0.674050, 0.433196, 4.924198, 148.542267, -30.588974, 101.826447
1648227782.552833, 2.241871, -3.207781, 0.970101, -0.774404, 0.641155, 5.698040, 135.284637, -35.989548, 103.420517
1648227782.586166, -0.924461, -6.862680, -0.461632, -0.613639, 1.585186, 6.420377, 123.998825, -36.680557, 104.733551
1648227782.619549, 2.685696, -13.625102, 2.253393, -0.605557, 2.408901, 6.576650, 113.729767, -34.089279, 106.646851
1648227782.652840, 4.489427, -20.443639, 2.700809, -1.225077, 3.051808, 6.185174, 104.644043, -30.741440, 108.027924
1648227782.686167, 2.350657, -15.909470, 4.456657, -0.795577, 2.415786, 4.627238, 100.524628, -31.018005, 108.426697
1648227782.719502, 12.909984, -10.492439, 7.594707, -0.220583, 0.086594, 2.623881, 97.207367, -32.346359, 108.921570
1648227782.752841, 6.604256, -7.458686, 5.583428, 0.407356, -2.541689, -1.188852, 102.206253, -33.792831, 111.427536
1648227782.786171, 7.658453, -9.385420, 1.651401, 0.730848, -1.059445, -2.921337, 107.825104, -34.473953, 113.251083
1648227782.819504, -22.050148, -13.964480, -4.579360, 0.793292, 1.052709, -2.308357, 111.541916, -35.539993, 113.763336
1648227782.852910, 10.804583, -19.914072, -0.940622, 1.180304, 1.430304, -3.634945, 113.799576, -36.379578, 114.318970
1648227782.886190, 7.514202, -6.894403, 2.336741, 1.399979, 0.481398, -2.633290, 117.601456, -35.866669, 115.769745
1648227782.919496, 3.679738, -11.002853, 9.231742, 0.574024, -0.362127, -1.863336, 120.280411, -34.984909, 117.233948
1648227782.952901, 6.852205, -9.697564, 3.345448, 0.335353, -2.305608, -0.959366, 123.925797, -34.291992, 116.494202
1648227782.986168, -2.247856, -10.600477, 1.710208, 0.269280, -0.535144, -0.856134, 127.157089, -33.576248, 115.846085
1648227783.019565, 2.375198, -9.665093, 2.515109, 0.241417, -0.117023, -0.633671, 127.721802, -33.206879, 115.901169
1648227783.052896, 3.304148, -8.500763, 4.239084, 0.217057, -1.443947, -0.266912, 129.348328, -33.145020, 115.418365
1648227783.086169, -1.554884, -9.273192, 2.553865, 0.187272, -0.638085, -0.482137, 131.379730, -32.609924, 114.430420
1648227783.119520, 0.843507, -9.404574, 3.345598, 0.165863, -0.464745, -0.625400, 132.426727, -32.382828, 114.333923
1648227783.152847, 1.043872, -8.735843, 2.871546, 0.157455, -0.738750, -0.693004, 133.924881, -31.715179, 113.561707
1648227783.186226, -2.063652, -8.628404, 2.564938, 0.196168, -0.296921, -0.988448, 135.604172, -31.218246, 113.195923
1648227783.219503, 0.660201, -9.144504, 2.846406, 0.181159, -0.252532, -1.208128, 137.823242, -30.202621, 112.860855
1648227783.252820, -1.307533, -10.340258, 2.671331, 0.202757, -0.439789, -1.466755, 140.100327, -29.025314, 112.430084
1648227783.286154, 0.335936, -10.826879, 2.495506, 0.187973, -0.416714, -1.777645, 142.344742, -27.736740, 111.322372
1648227783.319494, -1.855656, -12.080393, 2.795380, 0.178878, -0.412096, -2.186973, 145.806808, -25.615753, 110.447479
1648227783.352820, -0.470461, -13.523798, 2.321029, 0.124582, -0.773990, -2.725470, 149.029358, -23.388519, 108.743149
1648227783.386160, -3.068618, -15.171607, 3.735104, -0.078838, -1.020354, -3.178288, 152.754944, -20.677628, 106.719772
1648227783.419526, -3.905841, -17.516279, 3.101988, -0.121009, -2.112487, -3.148531, 158.413391, -16.915863, 100.662033
1648227783.452847, -8.201188, -17.184083, 1.852514, -0.006076, -1.670258, -3.237709, 162.181366, -14.041199, 94.419113
1648227783.486263, 0.262913, -14.525023, 4.914249, 0.287343, 0.757367, -2.756732, 164.644592, -10.690033, 92.036072
1648227783.519558, 6.824223, -7.228843, 2.946065, 0.555662, 1.673129, -1.729466, 165.291916, -8.262466, 93.210419
1648227783.552460, 3.519028, -5.698350, 2.565387, -0.412142, -0.457868, 0.912622, 164.948639, -10.302795, 91.587097
1648227783.586159, 0.166098, -1.652747, 0.606930, -0.496801, 0.207903, 2.195121, 163.870300, -14.663437, 89.502548
1648227783.619199, 1.192462, -2.073528, 1.698536, -0.511641, 0.717066, 3.093271, 161.374557, -20.561356, 89.162186
1648227783.652131, 3.799448, -3.584120, 2.000655, -0.669751, 0.969577, 4.158259, 155.080368, -30.221329, 90.245575
1648227783.686176, 1.701529, -4.648941, 1.774253, -0.909928, 0.879960, 5.385646, 147.803207, -38.090469, 90.217651
1648227783.719511, 0.822259, -6.798785, 1.254562, -0.790189, 1.013246, 5.988122, 138.001007, -45.113159, 90.898758
1648227783.752841, 2.201468, -10.575638, 2.611775, -0.637111, 1.227400, 6.266876, 122.062256, -51.294540, 92.276154
1648227783.786171, 3.646070, -17.255760, 3.133262, -0.753481, 1.699547, 6.437745, 108.490936, -52.697571, 92.538666
1648227783.819510, 1.516128, -16.635661, 3.028366, -0.665518, 1.718745, 5.645850, 96.050522, -51.262146, 92.229950
1648227783.852844, 3.131915, -16.818070, 5.886594, -0.384569, 2.069262, 4.254970, 83.552994, -46.453171, 91.133362
1648227783.886188, 8.950573, -6.524200, 5.441871, 0.441295, -1.507916, -0.266368, 81.385239, -44.120163, 92.449829
1648227783.919518, 6.217592, -9.162161, 2.289904, 0.717161, -0.697975, -2.649872, 84.389481, -43.738541, 94.954987
1648227783.952458, 5.381417, -14.341268, 2.790442, 0.220286, -0.328490, -2.712575, 88.743484, -44.514297, 96.845062
1648227783.985485, -7.530063, -17.851766, -3.581426, 0.832729, 2.374715, -3.528527, 92.912003, -44.243591, 97.599167
1648227784.019524, 9.744101, -14.989648, 2.360084, 1.147369, 1.529060, -3.467881, 97.329178, -44.181320, 98.092743
1648227784.052883, 8.414122, -4.366725, 4.787505, 1.294025, 0.352886, -2.237741, 101.176071, -43.872482, 99.907181
1648227784.086180, 5.646725, -11.559804, 6.710349, 0.428507, -1.476596, -1.290892, 105.354156, -42.989792, 101.511139
1648227784.119519, 1.031302, -10.033950, 1.256956, 0.368691, -1.865751, -0.719383, 108.095184, -42.513290, 102.262283
1648227784.152848, -0.851887, -10.700585, 1.221342, 0.290415, 0.229565, -0.791095, 109.508163, -42.056442, 102.716202
1648227784.186182, 2.370709, -10.241796, 2.985719, 0.233842, -0.220087, -0.568924, 110.922852, -41.613159, 103.384094
1648227784.219497, 0.815076, -8.644415, 3.646818, 0.198771, -0.988868, -0.357287, 112.299423, -41.433136, 103.086105
1648227784.252842, -1.527052, -9.635016, 3.096750, 0.155056, -0.368737, -0.461480, 113.214371, -40.939209, 102.953903
1648227784.286196, 1.197400, -9.429414, 2.880524, 0.138837, -0.557219, -0.512394, 114.334427, -40.654907, 103.262207
1648227784.319560, -0.286257, -9.039458, 2.652476, 0.156764, -0.522760, -0.733132, 116.183441, -40.048370, 103.013260
1648227784.352851, -1.230021, -8.728361, 2.469320, 0.190321, -0.282096, -1.032985, 117.887207, -39.474411, 103.351044
1648227784.386187, -0.194679, -9.219921, 2.959233, 0.198811, -0.239041, -1.238443, 119.540451, -38.756042, 103.547302
1648227784.419536, 0.136170, -10.493487, 2.889053, 0.184856, -0.595272, -1.414453, 122.420624, -37.431519, 103.645584
1648227784.452869, -2.778621, -10.564265, 2.633173, 0.215577, -0.363679, -1.846207, 124.851135, -36.002716, 103.655655
1648227784.486184, -0.144849, -12.299164, 2.738518, 0.189371, -0.478934, -2.234277, 127.908890, -34.275223, 103.451691
1648227784.519518, -1.422904, -13.637822, 2.765453, 0.096801, -0.600809, -2.776359, 132.552780, -30.975143, 102.996613
1648227784.552846, -2.091335, -15.364789, 4.047548, -0.090288, -0.907174, -3.129522, 136.667175, -27.583588, 101.760956
1648227784.586237, -2.902970, -16.970401, 3.806032, -0.168227, -2.127461, -2.962581, 140.701462, -23.601562, 99.818695
1648227784.619520, -7.111228, -18.244415, 1.303792, 0.033098, -2.842810, -2.752645, 146.356659, -17.936386, 95.633987
1648227784.652851, 2.193837, -15.033043, 5.520281, 0.215224, -0.088527, -3.058915, 149.004028, -12.600021, 94.417221
1648227784.686215, 5.479879, -8.722974, 3.518728, 0.513589, 1.173236, -2.137980, 150.316254, -8.392975, 94.582779
1648227784.719523, 4.561104, -7.742549, 3.802890, -0.076862, 0.540553, -0.350955, 150.736115, -6.326462, 95.162231
1648227784.752852, 2.214786, -1.892916, 1.709909, -0.140140, 0.888243, 1.438442, 150.977051, -7.575790, 95.791016
1648227784.786235, 3.245191, -2.144008, 2.354548, -0.412993, 0.713049, 2.667720, 150.034332, -10.574860, 96.069855
1648227784.819518, 3.232621, -2.178873, 1.685368, -0.654111, 0.587434, 3.875372, 148.283432, -15.751389, 96.479004
1648227784.852852, 2.499247, -3.340360, 1.702277, -0.829246, 0.557394, 5.083572, 143.075302, -24.795776, 96.856705
1648227784.886228, 2.102708, -4.388123, 1.465700, -0.847654, 0.635742, 5.895481, 136.186813, -31.553238, 96.665329
1648227784.919529, 0.587477, -7.563882, 1.420061, -0.715440, 0.911660, 6.572860, 126.934570, -37.496796, 96.804291
1648227784.952851, 3.375076, -15.619173, 3.924097, -0.603070, 1.838120, 6.816332, 110.459061, -41.415436, 96.956360
1648227784.986246, 3.196858, -20.435708, 2.649483, -0.733730, 1.918940, 6.153678, 97.897949, -40.492554, 95.627289
1648227785.019534, 2.768445, -15.851560, 4.110096, -0.456909, 1.682748, 4.655361, 88.495361, -37.180389, 94.270004
1648227785.052870, 10.585214, -9.364321, 5.932832, 0.189896, -0.385885, 0.876717, 82.966263, -33.632126, 92.408447
1648227785.086188, 6.430077, -9.370007, 3.872621, 0.711140, -0.830220, -2.153215, 84.560333, -31.880173, 94.022980
1648227785.119624, 9.376292, -11.146954, 3.511097, 0.462874, -0.254130, -2.988374, 87.952286, -32.522781, 95.353851
1648227785.152917, -22.139632, -16.496349, -6.816142, 0.287054, -0.229567, -1.501530, 90.175568, -32.184906, 95.514084
1648227785.186231, 8.895357, -16.286557, 1.220295, 1.231660, 1.649319, -3.359981, 94.547638, -32.664047, 95.447205
1648227785.219384, 5.768230, -7.604433, 2.403778, 1.189026, 1.056507, -2.587736, 97.345306, -32.581665, 95.871414
1648227785.252388, 3.204938, -7.254880, 10.931027, 0.849139, 0.028126, -1.961010, 99.809845, -32.451431, 96.722290
1648227785.285339, 4.515764, -9.633819, 2.675071, 0.339697, -2.692048, -0.756978, 102.350067, -32.246674, 97.084641
1648227785.319523, -1.688062, -10.799346, 1.478868, 0.261986, -0.257454, -0.902792, 105.076553, -31.733368, 98.071320
1648227785.352853, 1.353472, -10.022727, 2.559402, 0.253378, 0.444260, -0.723769, 105.689133, -31.501556, 97.893723
1648227785.385385, 3.380014, -8.427440, 3.887286, 0.181599, -1.148328, -0.364065, 106.916092, -31.267258, 98.236557
1648227785.419535, -1.603666, -9.121759, 2.923620, 0.157826, -0.531362, -0.418644, 108.203171, -30.923264, 98.193237
1648227785.452008, 0.025139, -9.573066, 3.049315, 0.138658, -0.361687, -0.540419, 109.262772, -30.758148, 98.292953
1648227785.486205, -0.405967, -9.002498, 2.871845, 0.168161, -0.691707, -0.708325, 110.267761, -30.664948, 98.388016
1648227785.519522, -1.074548, -9.112032, 2.388515, 0.185708, -0.296408, -0.987054, 111.770508, -30.230743, 98.350723
1648227785.552863, 0.734421, -9.089587, 2.771288, 0.222750, -0.460985, -1.148894, 113.341263, -29.617233, 98.306778
1648227785.586191, -0.364517, -10.077045, 2.595614, 0.233614, -0.640455, -1.318717, 115.064270, -28.991211, 97.770874
1648227785.619526, -1.547253, -10.913669, 3.098845, 0.232381, -0.486018, -1.814063, 117.943817, -27.813416, 98.068497
1648227785.652858, -2.165256, -11.681160, 3.175160, 0.219614, -0.426577, -2.286246, 120.670303, -26.464249, 97.155624
1648227785.686295, -0.162806, -13.684060, 2.372654, 0.217204, -0.906725, -2.709796, 123.796844, -24.619186, 96.794586
1648227785.719507, -3.944597, -16.508619, 3.575890, -0.023585, -1.004821, -3.286570, 128.132034, -20.940765, 94.764847
1648227785.751993, -1.774552, -18.321628, 3.945046, -0.086402, -2.281034, -2.969887, 132.149002, -17.989807, 92.249374
1648227785.786208, -7.040599, -17.282395, 1.433229, 0.041240, -2.512629, -2.713032, 134.817123, -14.205627, 88.656525
1648227785.819525, 2.594866, -13.882778, 3.425953, 0.350339, 0.457599, -2.436409, 136.769516, -9.822678, 86.367218
1648227785.852853, 8.236203, -7.113023, 2.789245, 0.382352, 1.440607, -1.588489, 137.465286, -5.148422, 86.310028
1648227785.886205, 2.125901, -6.447435, 2.128745, -0.028725, 0.099053, 0.197434, 137.387085, -3.565933, 85.676285
1648227785.919539, 1.504756, -1.979705, 1.523012, -0.175374, 0.354321, 1.814031, 136.637283, -3.646744, 85.508179
1648227785.952859, 2.480393, -2.707543, 1.528249, -0.375341, 0.594281, 2.957762, 134.503204, -5.273758, 85.749069
1648227785.986237, 2.939032, -3.284994, 1.577180, -0.510310, 0.608573, 4.054010, 131.660370, -6.889420, 86.290054
1648227786.019588, 2.750339, -4.271555, 1.645714, -0.689660, 0.750385, 4.989261, 127.901413, -8.404373, 86.949677
1648227786.052876, 1.646612, -6.455815, 1.335665, -0.744548, 0.852809, 5.975105, 122.105835, -8.415466, 88.229309
1648227786.085927, 0.798915, -9.786150, 1.436521, -0.715919, 1.109755, 6.532005, 118.815933, -6.118408, 89.343216
1648227786.119327, 2.937087, -15.554530, 3.632602, -0.666307, 1.847007, 6.616093, 118.337936, -2.975922, 90.763855
1648227786.152462, 3.536236, -18.400188, 2.834735, -0.914439, 1.857185, 5.470607, 120.186432, -1.996628, 92.536316
1648227786.186265, 6.362292, -15.253309, 5.842151, -0.480074, 1.607894, 4.142065, 124.648834, -4.834869, 94.883743
1648227786.219520, 9.384073, -9.689783, 5.842151, 0.123658, -0.597550, 1.037342, 128.513062, -6.846146, 95.905960
1648227786.252902, 8.209269, -8.934562, 2.712182, 0.878320, -0.397278, -2.607223, 133.853897, -6.325424, 95.668732
1648227786.286181, -4.884920, -18.226010, 3.673902, -0.390724, -0.903505, -1.993208, 140.738327, -4.903946, 95.663528
1648227786.319571, -0.733224, -19.188928, -5.753117, 0.850768, 2.762964, -4.003406, 144.053131, -4.741440, 97.088211
1648227786.352865, 8.479065, -7.248595, 1.083526, 1.195651, 1.745687, -2.817811, 146.140335, -3.584671, 99.856537
1648227786.386209, 4.874894, -7.954885, 11.069142, 1.162238, 0.131917, -2.186199, 148.001282, -1.272476, 101.299622
1648227786.419536, 7.022792, -9.680954, 6.590040, 0.310613, -2.329113, -1.248426, 150.178284, -0.026337, 99.449371
1648227786.452864, -2.234987, -10.961104, 2.016217, 0.220002, -0.571961, -0.912159, 152.129166, 0.518738, 96.683701
1648227786.486207, 0.540042, -9.849895, 2.074276, 0.232425, 0.707836, -0.775164, 152.569412, 1.215668, 97.595505
1648227786.519553, 4.199130, -9.182063, 3.743035, 0.164476, -0.920598, -0.434085, 152.993347, 1.318283, 96.910568
1648227786.552915, 0.618751, -8.645612, 3.232771, 0.136447, -0.998666, -0.297667, 153.509140, 1.604111, 95.088379
1648227786.586200, -1.002722, -9.799018, 2.584092, 0.118472, -0.335345, -0.519687, 154.104935, 1.815918, 94.208115
1648227786.619572, 0.631770, -8.900145, 3.142539, 0.147308, -0.661654, -0.600012, 154.956787, 2.317902, 93.159760
1648227786.652874, -0.609474, -8.670901, 2.604891, 0.159066, -0.619991, -0.856963, 155.693039, 2.960068, 92.118652
1648227786.686223, -0.176722, -9.691279, 2.612972, 0.197319, -0.251079, -1.169138, 156.340134, 3.900513, 91.526810
1648227786.719563, 1.436820, -10.377517, 2.720412, 0.190004, -0.685398, -1.233500, 157.671631, 5.243668, 90.421661
1648227786.752906, -2.215534, -10.175207, 3.317316, 0.176295, -0.456744, -1.554397, 158.702835, 6.499390, 89.613113
1648227786.786244, -1.617433, -11.251700, 2.705897, 0.150093, -0.463615, -2.180252, 159.639404, 8.115906, 88.272263
1648227786.819577, -0.772130, -13.800478, 2.679561, 0.123045, -0.626906, -2.630636, 161.627548, 10.637970, 86.046692
1648227786.852873, -1.240795, -14.514848, 2.772037, 0.023821, -0.976967, -2.979657, 163.010223, 12.361313, 84.008102
1648227786.885595, -3.956269, -16.144551, 3.733757, -0.024097, -1.452969, -3.164409, 164.744019, 13.584885, 80.706787
1648227786.918590, -3.630059, -17.608755, 2.380435, 0.037545, -3.025333, -2.566895, 166.434189, 13.200867, 74.492355
1648227786.952865, -2.298434, -13.920038, 5.564424, -0.038587, -0.933446, -3.195305, 167.916382, 11.495499, 67.952774
1648227786.986202, 2.585887, -11.301230, 4.528782, 0.403199, 0.187789, -2.371874, 168.845490, 8.504135, 66.187866
1648227787.019535, 3.982455, -6.922684, 4.167707, 0.050076, 0.588545, -0.341983, 168.659302, 3.553726, 67.729462
1648227787.052919, 0.973093, -3.662231, 1.569698, 0.005675, 0.830352, 1.040102, 166.358032, -5.968811, 68.789154
1648227787.085638, 2.469918, -2.332401, 2.230049, -0.143258, 0.837086, 1.972323, 162.338303, -13.808258, 70.852020
1648227787.119575, 2.272846, -2.804059, 1.613393, -0.441948, 1.028550, 3.473698, 156.127640, -21.567795, 72.689896
1648227787.152872, 2.746299, -4.138677, 1.848623, -0.650425, 1.000969, 4.441030, 144.410904, -30.379608, 74.510117
1648227787.186231, 2.410363, -5.294178, 1.853262, -0.798421, 1.174671, 5.204377, 133.444061, -34.571182, 75.873138
1648227787.219533, 1.120337, -8.744373, 2.132785, -0.915226, 1.281501, 6.014719, 121.366913, -34.999878, 76.976501
1648227787.252883, 1.620575, -11.919832, 2.133832, -0.748073, 1.477032, 6.470533, 110.527588, -31.793655, 78.311310
1648227787.286276, 1.582867, -18.023550, 3.835212, -0.650405, 1.988086, 6.390156, 100.415527, -23.759628, 81.101807
1648227787.319542, 5.995680, -15.886725, 3.702783, -0.597076, 0.861149, 5.062761, 98.162933, -18.643326, 82.801743
1648227787.352884, 7.809587, -12.090269, 4.839579, -0.228620, 0.287612, 2.929823, 98.145645, -15.119370, 84.529053
1648227787.385631, 5.241805, -7.079804, 3.128473, 0.519191, -0.787582, -0.869980, 101.988556, -13.392853, 86.974442
1648227787.419465, 9.388563, -8.682722, 2.169147, 0.913392, 0.121546, -3.197258, 106.162903, -12.917938, 88.340073
1648227787.452898, -22.315157, -20.798729, -5.914426, 0.238658, -1.087470, -1.359474, 109.531372, -12.157562, 89.041992
1648227787.486213, 9.620501, -18.356194, 0.325013, 1.181122, 1.919705, -4.084673, 114.345612, -12.378006, 89.828705
1648227787.519600, 10.532243, -7.769633, 0.594211, 1.305477, 1.360531, -2.899732, 116.924042, -11.451447, 90.731354
1648227787.552894, 5.284901, -9.471162, 11.608287, 0.816810, -0.951981, -1.801798, 118.821304, -10.456009, 91.432953
1648227787.586214, 4.064307, -9.792285, 5.764938, 0.375773, -2.864922, -0.914044, 121.241364, -9.603821, 90.408691
1648227787.619600, -4.298041, -10.634296, 2.453458, 0.268511, -0.233502, -1.095115, 122.368225, -8.866974, 90.089355
1648227787.652874, 4.551976, -9.601048, 3.597288, 0.175209, -0.224545, -0.762402, 123.085434, -8.596939, 90.476227
1648227787.686214, 2.487127, -8.434174, 5.019294, 0.077663, -1.178657, -0.389495, 123.870758, -8.120300, 89.784851
1648227787.719519, -0.694318, -9.347861, 2.772635, 0.050410, -0.545145, -0.459937, 124.917511, -8.020340, 89.261398
1648227787.752867, 0.448165, -9.593716, 2.458695, 0.096740, -0.603801, -0.550162, 125.423828, -7.826324, 89.064514
1648227787.786207, 0.311695, -8.977358, 2.983774, 0.144955, -0.548976, -0.707976, 126.047668, -7.611649, 88.939636
1648227787.819540, -0.112079, -8.218696, 2.864662, 0.169976, -0.556584, -0.913641, 127.299500, -7.005783, 88.629608
1648227787.852881, 0.458639, -9.392004, 3.061585, 0.212646, -0.552821, -1.191035, 128.009430, -5.984024, 87.914062
1648227787.886256, -0.226102, -10.183138, 2.403330, 0.230544, -0.559448, -1.402123, 129.338974, -4.975357, 87.541992
1648227787.919548, -0.388459, -11.071237, 2.638710, 0.235535, -0.500984, -1.769952, 130.865005, -3.448578, 87.004288
1648227787.952886, -2.031929, -12.900258, 2.558055, 0.195034, -0.436241, -2.246742, 132.534058, -1.506622, 86.396866
1648227787.986205, -2.288707, -14.338425, 2.359037, 0.176210, -0.752221, -2.918036, 134.141754, 0.867477, 85.607040
1648227788.019550, -4.157232, -15.382596, 3.683479, -0.009661, -1.117171, -3.376254, 136.566528, 3.752411, 84.507767
1648227788.052891, -3.992331, -18.988713, 3.972729, -0.069568, -2.499724, -3.141880, 139.599518, 8.817947, 81.544968
1648227788.086208, -5.479879, -15.064466, 3.120094, -0.029786, -1.731885, -3.314592, 142.130829, 12.664383, 78.107407
1648227788.119541, 1.543512, -11.962180, 4.393360, 0.297892, 0.468033, -2.368776, 144.710815, 17.084747, 77.126709
1648227788.152878, 10.203040, -6.824073, 4.333355, 0.380325, 2.058072, -1.240597, 148.725891, 20.678314, 78.891266
1648227788.186207, 2.606837, -5.170428, 1.763629, -0.190784, 0.329431, 1.288723, 152.636841, 20.278839, 80.354584
1648227788.219616, 3.282002, -1.292869, 0.806696, -0.180686, 0.262204, 2.530053, 157.001419, 16.934311, 81.667099
1648227788.252876, 3.553145, -2.656965, 1.064971, -0.381062, 0.092228, 3.750416, 162.398346, 8.154251, 83.346680
1648227788.286274, 1.945887, -3.106776, 0.837821, -0.590114, 0.319466, 5.031815, 165.236603, -1.801498, 84.650223
1648227788.319544, 0.941819, -4.841525, 0.028880, -0.580410, 1.036698, 5.668926, 165.247757, -13.895859, 87.176041
1648227788.352920, 0.734272, -7.787889, 1.293168, -0.745995, 1.538212, 6.252661, 161.736465, -27.248520, 90.547134
1648227788.386262, 2.530222, -12.732963, 1.556231, -0.931504, 1.856710, 6.674026, 149.476151, -45.335022, 95.703857
1648227788.419588, 4.963779, -18.872444, 3.750517, -1.141918, 0.936729, 6.413845, 135.549347, -55.949768, 97.234909
1648227788.452534, 4.532972, -16.524331, 5.128081, -0.816231, 0.811150, 5.022143, 121.142975, -62.049026, 97.285187
1648227788.485835, 8.488492, -12.501324, 5.016002, -0.412972, 0.825030, 2.899750, 106.331573, -64.235321, 97.516663
1648227788.518852, 5.461922, -8.006061, 3.426551, 0.830975, -0.084667, -1.839145, 104.745438, -64.073212, 98.423325
1648227788.552882, 9.560496, -9.679308, 3.150021, 1.185577, 1.074201, -3.600569, 108.630936, -63.641953, 101.417892
1648227788.586211, -15.931317, -17.688661, 1.284489, 0.155827, -1.132496, -0.780394, 111.809906, -63.022751, 102.390152
1648227788.619592, 8.723423, -17.434726, 1.400907, 1.061454, 1.193233, -3.616023, 115.402283, -62.132660, 103.838440
1648227788.652891, 7.464971, -8.840290, 0.132280, 1.279462, 0.999109, -2.790172, 119.459290, -60.584656, 106.267181
1648227788.686211, 3.958513, -5.947945, 10.427796, 1.163926, 0.905044, -2.221474, 123.004730, -58.252747, 110.149948
1648227788.719532, 6.164770, -9.923218, 5.029918, 0.333761, -2.457231, -0.921718, 126.754547, -57.312866, 109.987564
1648227788.752889, -0.078709, -10.628460, 1.440711, 0.261921, -0.851034, -0.917075, 129.844406, -56.643723, 109.088882
1648227788.786216, 0.477943, -10.314520, 1.744924, 0.291782, 0.243323, -0.754272, 130.756531, -55.717514, 109.737549
1648227788.819564, 2.891148, -9.089138, 3.671957, 0.227011, -0.901567, -0.543886, 132.603973, -55.227707, 109.653336
1648227788.852901, -0.697012, -8.861988, 3.339911, 0.174404, -0.787441, -0.474042, 134.257614, -54.812500, 109.027420
1648227788.886215, -1.093552, -9.805303, 2.512864, 0.180309, -0.361876, -0.631416, 135.545792, -54.478928, 109.052856
1648227788.919547, 0.577900, -8.921244, 2.898331, 0.217729, -0.558186, -0.781929, 137.323807, -53.194870, 108.649078
1648227788.952880, -0.773776, -8.798990, 2.727145, 0.248300, -0.254670, -1.134673, 139.147552, -52.439407, 108.822266
1648227788.986282, 0.498592, -9.911247, 2.975095, 0.270839, -0.489543, -1.308434, 141.199036, -51.159210, 108.823135
1648227789.019544, -0.693121, -10.603919, 2.535609, 0.256515, -0.611213, -1.544939, 144.606842, -49.314758, 108.343140
1648227789.052888, -0.360477, -11.352406, 2.862867, 0.232502, -0.496151, -2.100602, 147.417664, -47.342300, 107.825989
1648227789.085745, -1.739986, -12.121244, 2.933645, 0.238178, -0.594814, -2.610681, 150.689148, -44.847580, 107.490707
1648227789.119588, -2.328511, -13.885771, 2.923919, 0.276691, -0.963646, -3.134377, 154.642700, -41.405701, 106.365891
1648227789.152888, -3.241599, -19.334226, 3.114856, 0.155894, -1.759628, -3.435100, 159.901733, -35.828110, 103.548904
1648227789.186237, -3.831920, -20.146608, 1.821090, -0.008866, -3.108741, -2.883497, 163.303986, -32.669434, 98.150650
1648227789.219563, -2.166304, -14.426711, 4.345177, -0.031998, -0.901555, -3.135126, 165.152328, -29.259583, 94.291626
1648227789.252885, 2.311602, -7.755118, 3.989488, 0.592239, 1.411471, -2.117394, 164.278366, -25.772568, 95.217819
1648227789.286290, 6.412271, -6.735039, 4.459201, -0.180807, 0.475254, 0.060190, 161.145294, -25.916458, 96.531281
1648227789.319554, -0.010624, -3.793164, 1.522263, -0.277241, 0.166969, 1.762728, 156.705795, -28.258636, 95.200638
1648227789.352886, 2.409914, -3.141043, 2.505532, -0.474121, 0.582425, 2.674405, 148.338501, -32.893845, 93.788803
1648227789.386215, 2.513912, -3.758597, 1.870171, -0.827662, 0.895468, 4.168270, 140.341278, -36.292618, 92.977936
1648227789.419561, 0.770484, -4.287566, 2.093131, -0.915527, 1.035903, 5.053358, 130.433075, -38.634750, 91.524048
1648227789.452885, 2.061408, -6.481702, 1.665915, -0.857972, 1.005816, 5.651396, 116.781662, -38.606308, 88.970276
1648227789.486289, 3.677194, -10.243293, 3.484312, -0.934209, 0.514938, 6.399441, 106.709320, -35.628662, 86.835846
1648227789.519631, 3.833566, -13.302484, 2.570774, -0.623912, 0.850131, 6.565385, 98.613525, -30.660309, 84.766403
1648227789.552887, 0.477793, -16.093674, 3.756353, -0.472227, 1.625388, 6.185382, 93.214722, -24.832184, 82.744492
1648227789.586214, 5.910087, -16.708086, 5.272780, -0.300493, 1.428297, 4.666993, 90.790802, -18.372116, 80.355042
1648227789.619613, 9.934590, -10.285341, 6.311864, -0.187758, -0.173244, 2.196970, 91.741104, -15.954391, 79.254837
1648227789.652931, 6.703316, -8.260744, 3.331681, 0.688585, -1.460288, -1.471554, 94.498672, -15.546585, 79.928482
1648227789.686219, 6.742222, -9.883713, 0.905158, 0.876643, 0.808746, -3.614478, 100.179077, -15.873001, 80.643661
1648227789.719601, -26.456677, -15.564406, 0.669179, 0.287524, 0.994883, -0.717498, 103.335739, -15.657806, 80.901581
1648227789.752915, 17.225084, -20.170251, -0.152780, 0.728994, 1.708823, -3.571865, 107.255539, -15.983032, 81.285400
1648227789.786222, 4.358943, -13.207314, 0.861464, 1.180147, 0.666768, -3.157348, 111.655487, -16.257629, 83.258926
1648227789.819557, 3.460370, -3.550751, 11.763012, 0.987027, 0.408065, -2.093754, 114.195786, -15.675049, 84.450714
1648227789.852889, 9.464130, -11.484237, 5.783793, 0.227589, -2.215617, -1.084626, 115.775757, -15.386581, 84.651978
1648227789.886221, -2.176329, -10.654048, 0.406715, 0.247211, -1.839950, -0.767876, 117.158722, -15.239227, 83.849823
1648227789.919557, 0.141258, -10.188675, 1.321001, 0.230228, 0.331251, -0.802017, 118.320175, -15.117966, 84.335358
1648227789.952908, 3.399766, -8.376563, 5.023933, 0.162992, -1.331408, -0.425390, 118.942642, -14.921936, 84.420654
1648227789.986241, -1.735347, -8.388385, 3.180996, 0.113655, -0.352623, -0.548377, 119.669373, -14.903275, 84.179337
1648227790.019556, 0.735319, -9.555408, 3.232621, 0.113079, -0.680610, -0.573175, 120.631668, -14.534500, 84.441605
1648227790.052935, -0.891541, -9.408315, 3.159748, 0.075910, -0.401155, -0.734128, 121.357864, -14.445358, 84.322556
1648227790.086273, 0.277278, -8.774599, 2.691083, 0.111590, -0.582896, -0.919009, 122.325699, -14.117264, 83.736755
1648227790.119587, -1.712153, -9.136274, 2.790292, 0.193133, -0.285809, -1.340368, 124.114243, -13.469650, 84.070770
1648227790.152932, 1.428740, -9.697415, 2.042853, 0.236321, -0.619765, -1.521599, 125.526993, -12.523148, 83.913361
1648227790.186298, -0.304064, -10.194810, 2.792687, 0.214545, -0.414307, -1.788083, 127.191147, -11.592529, 83.751831
1648227790.219601, -0.236727, -12.237513, 2.809446, 0.174337, -0.560991, -2.214049, 129.071991, -10.243042, 83.746170
1648227790.252952, -1.472883, -13.333758, 2.599355, 0.105659, -0.509259, -2.652539, 132.428726, -7.855789, 83.768829
1648227790.286312, -1.303643, -14.743793, 3.803938, 0.010089, -0.868103, -2.991515, 135.210434, -5.491486, 83.240936
1648227790.319599, -4.194192, -16.626533, 3.985897, -0.104495, -1.474694, -3.143175, 138.328674, -2.726532, 82.847534
1648227790.352927, -5.239710, -19.985598, 0.949451, -0.038157, -2.869837, -2.863782, 143.100281, 1.394836, 79.687546
1648227790.386335, -2.627187, -15.940894, 6.056881, -0.224447, -0.635167, -3.165169, 146.933533, 4.943008, 78.697205
1648227790.419649, 2.944120, -9.419238, 4.821773, 0.519667, 1.096948, -2.224765, 150.674561, 7.957748, 79.465424
1648227790.452039, 3.820847, -7.638401, 2.697966, -0.064880, 0.620859, -0.008651, 155.449615, 8.634354, 83.487534
1648227790.486273, 1.664569, -2.588880, 1.229871, -0.079723, 0.915775, 1.468359, 158.698364, 5.115173, 84.788818
1648227790.519613, 2.530970, -1.453430, 2.354398, -0.139953, 0.604136, 2.527801, 161.254486, -0.272171, 86.760101
1648227790.552942, 3.406949, -2.502988, 1.971775, -0.533392, 0.454614, 4.104152, 162.608459, -11.698364, 88.961655
1648227790.586278, 3.178901, -2.972252, 2.316540, -0.793505, 0.404488, 5.069729, 160.337723, -22.634888, 89.861374
1648227790.619606, 2.169745, -3.613299, 1.755997, -0.741462, 0.648847, 5.853911, 154.669998, -34.941116, 90.532196
1648227790.652926, 0.792032, -8.164677, 1.681478, -0.594031, 0.626446, 6.817921, 144.302902, -47.085510, 91.155716
1648227790.686260, 0.696862, -15.899594, 2.431910, -0.455298, 1.275731, 7.366397, 122.714050, -58.395874, 92.239899
1648227790.719596, 2.654571, -21.438879, 4.331560, -0.738534, 1.787899, 6.347893, 103.485535, -60.543030, 91.702606
1648227790.752940, 2.484732, -16.453253, 3.543568, -0.305873, 1.738767, 4.537076, 87.314651, -56.771896, 89.837845
1648227790.786306, 8.732102, -9.904812, 5.455637, 0.357374, 0.340037, 0.823045, 75.495590, -48.390396, 87.999603
1648227790.819653, 5.531803, -8.783129, 3.583970, 0.869490, -0.203240, -1.968397, 75.273972, -43.694473, 88.945816
1648227790.852979, 9.048885, -10.719589, 1.465551, 1.024179, 0.474389, -3.181464, 77.485611, -40.450668, 89.338913
1648227790.886266, -16.742951, -17.506702, -3.255067, 0.008630, -0.297988, -1.303885, 79.943970, -35.171417, 88.010834
1648227790.919569, 8.221838, -18.998888, 0.877026, 1.077988, 1.796572, -3.594581, 84.176758, -32.647110, 87.235962
1648227790.952984, 7.550863, -12.105682, -0.474202, 1.079932, 1.044682, -3.015199, 89.246674, -31.645111, 87.677643
1648227790.986266, 4.924274, -5.590311, 13.287670, 0.723910, 0.484149, -1.762059, 91.753952, -30.070374, 88.084808
1648227791.019648, 7.412448, -11.637765, 6.137686, 0.042993, -2.681509, -0.775728, 95.096985, -29.727264, 89.000381
1648227791.052945, -1.615039, -10.989984, -1.140239, 0.169169, -1.883180, -0.606376, 97.023315, -29.723557, 89.841980
1648227791.086262, -1.737891, -9.257031, 1.640327, 0.249346, 0.750003, -0.719105, 98.133331, -29.380432, 89.561005
1648227791.119626, 4.397999, -8.489989, 4.331859, 0.169614, -1.132523, -0.413725, 99.807632, -29.266174, 89.891937
1648227791.152950, -1.942146, -8.547001, 3.593098, 0.120217, -0.807627, -0.511289, 100.919144, -28.981033, 89.780624
1648227791.186316, -0.837522, -9.310302, 2.043301, 0.135294, -0.229811, -0.745691, 101.909531, -28.472748, 90.108261
1648227791.219622, -1.053149, -9.382577, 2.523638, 0.228159, -0.443123, -0.962836, 104.009720, -27.824753, 89.839752
1648227791.252060, 0.161160, -9.118467, 2.452710, 0.264448, -0.416907, -1.167089, 105.719528, -26.743958, 89.893509
1648227791.286277, -0.877924, -9.720908, 2.613271, 0.298137, -0.473021, -1.397418, 107.798203, -25.843506, 89.866608
1648227791.319599, 0.901267, -10.148273, 2.972401, 0.279860, -0.703351, -1.629373, 110.818741, -24.259155, 89.758362
1648227791.352936, -2.020557, -10.921899, 2.799869, 0.312913, -0.693118, -1.993580, 113.569489, -22.602798, 88.895233
1648227791.386280, -1.419612, -12.480375, 2.146701, 0.264171, -0.463281, -2.545139, 117.168976, -20.476807, 88.503036
1648227791.419601, -1.470189, -15.340847, 3.752612, 0.219216, -0.935669, -3.064524, 121.532196, -17.713806, 87.299622
1648227791.452941, -4.255693, -18.118271, 4.342932, 0.129205, -1.311903, -3.275969, 128.669922, -13.339355, 84.689651
1648227791.486307, -1.432182, -21.253029, 3.176806, 0.073106, -3.485562, -2.432995, 134.562119, -10.391785, 80.803299
1648227791.519602, -3.155558, -12.134263, 4.474613, 0.122927, -1.261280, -3.171001, 140.370316, -7.676178, 75.403976
1648227791.552936, 1.366191, -10.727669, 3.596839, 0.665462, -0.124030, -1.765584, 147.492737, -4.434326, 72.332428
1648227791.586143, 9.704148, -7.205948, 5.648670, 0.296341, 0.730387, -0.619389, 152.472885, -4.148972, 71.791519
1648227791.619600, 0.029778, -2.600851, -0.183456, 0.395749, 0.466742, 1.439451, 156.576706, -6.924774, 71.343567
1648227791.652989, 1.474679, -2.030133, 0.882114, 0.501455, 0.583733, 2.311182, 160.228699, -13.719360, 72.645248
1648227791.686297, 1.906533, -3.749918, 1.154753, 0.217381, 1.037751, 3.400857, 161.168472, -21.563751, 74.672775
1648227791.719293, 2.558204, -4.597466, 0.940173, -0.210363, 0.925646, 4.313556, 159.356262, -31.719589, 77.061020
1648227791.752939, 2.209998, -5.667375, 0.849642, -0.615945, 1.074142, 5.293179, 153.832993, -42.580002, 79.103409
1648227791.786277, 1.801188, -8.057985, 1.327734, -0.893197, 1.259389, 5.910425, 140.622665, -56.724884, 81.135620
1648227791.819469, 1.783381, -11.096227, 2.069787, -1.073249, 1.497877, 6.553179, 125.584412, -65.016846, 81.204727
1648227791.852844, 2.942773, -18.111537, 3.028366, -1.010378, 1.713902, 6.497020, 107.783386, -69.088638, 79.075363
1648227791.886183, 4.821174, -18.969709, 3.847332, -0.978795, 1.598083, 5.305957, 86.877518, -66.512634, 73.063492
1648227791.919517, 8.966584, -11.629984, 5.097854, -0.385374, 1.317357, 2.896543, 78.410522, -62.588104, 69.939194
1648227791.952866, 7.829788, -7.283311, 3.551050, 0.824190, -0.548122, -2.214254, 78.572632, -61.847000, 69.844772
1648227791.986178, 3.930531, -15.053992, 5.499032, 0.048761, -0.457173, -2.670434, 85.973907, -63.741608, 70.200729
1648227792.019508, -16.239271, -16.097265, -6.639271, 0.695881, 0.782580, -3.136903, 91.904007, -63.894974, 70.779190
1648227792.052850, 10.557681, -10.171616, 0.163105, 1.079887, 1.275132, -3.293517, 101.935867, -63.996170, 71.621704
1648227792.086209, 7.231985, -4.617368, 7.017106, 1.462976, 0.340225, -2.223104, 108.518524, -63.297897, 73.274887
1648227792.119589, 6.525397, -13.018771, 6.888118, 0.460506, -0.815087, -1.598387, 114.167389, -62.756058, 75.419464
1648227792.152870, 4.330063, -9.525182, 3.761141, 0.271517, -2.583785, -0.612532, 116.167847, -62.426880, 75.749603
1648227792.186187, -0.819116, -10.646416, 2.086696, 0.257284, 0.018807, -0.677247, 117.401703, -62.078171, 75.952362
1648227792.219020, 2.685995, -9.546729, 3.723133, 0.135704, -0.625620, -0.416078, 119.109955, -61.449158, 76.084732
1648227792.252866, 1.057339, -8.914511, 4.779126, 0.059696, -1.600209, -0.165951, 119.428024, -61.392944, 75.764114
1648227792.285364, -3.065027, -8.718635, 2.810194, 0.091530, -0.396636, -0.492214, 120.095581, -60.876343, 75.597488
1648227792.319578, 0.611270, -9.635165, 3.364452, 0.074485, -0.453519, -0.623466, 122.007767, -60.496826, 75.346664
1648227792.352908, 0.836474, -8.757241, 2.444181, 0.101192, -0.742700, -0.701842, 123.589172, -60.214600, 75.479462
1648227792.386049, -2.527978, -8.799589, 2.583044, 0.186765, -0.072043, -1.108626, 125.531982, -59.472778, 75.343231
1648227792.419575, 0.729633, -8.926033, 2.533814, 0.233436, -0.159850, -1.319169, 129.239517, -58.243805, 75.406418
1648227792.452907, -0.484826, -9.627085, 2.602348, 0.265550, -0.335887, -1.609556, 132.611618, -57.086563, 75.635147
1648227792.486257, -0.655862, -11.690438, 2.935291, 0.244095, -0.233527, -2.003865, 136.198792, -55.311478, 75.611740
1648227792.519607, -2.935441, -11.858032, 2.759766, 0.296727, -0.226780, -2.530907, 140.495956, -52.683853, 75.342636
1648227792.552906, -0.732476, -13.942783, 3.276166, 0.293756, -0.770349, -2.874264, 147.785416, -48.101410, 74.818253
1648227792.586248, -1.292719, -16.110733, 2.554763, 0.124675, -1.242364, -3.188996, 152.812393, -43.164581, 73.098846
1648227792.619587, -3.683629, -20.090345, 2.148048, -0.098540, -2.999432, -2.946635, 157.161301, -38.426773, 69.824005
1648227792.652909, -10.408792, -16.517448, 1.815403, -0.068893, -1.453674, -3.137259, 161.030518, -31.527756, 63.958939
1648227792.686242, 2.407070, -14.247296, 7.360075, -0.098933, 0.902784, -2.897359, 164.155716, -26.519516, 63.748749
1648227792.719585, 11.403433, -6.038027, 6.521805, -0.192606, 1.812150, -1.186349, 166.206497, -23.168411, 65.748566
1648227792.752938, 1.255908, -5.806538, 1.975516, -0.645050, -0.078254, 0.774442, 165.968460, -23.729050, 65.721771
1648227792.786248, 2.027141, -2.026991, 1.583315, -0.771854, 0.292415, 2.056769, 164.390533, -27.222687, 65.020782
1648227792.819657, 3.259257, -2.624793, 1.930475, -1.099319, 0.380050, 3.581724, 161.144485, -32.729111, 63.738831
1648227792.852926, 2.759617, -2.742109, 1.761534, -1.163525, 0.458965, 4.627546, 155.712585, -39.687820, 63.022980
1648227792.886255, 1.843984, -3.650260, 1.567903, -1.196072, 0.859454, 5.414753, 144.788742, -49.712128, 61.879395
1648227792.919579, 0.533757, -6.601562, 1.640776, -0.957246, 1.183669, 6.236326, 133.595016, -55.763397, 60.570908
1648227792.952911, 2.198027, -12.627768, 2.580052, -0.835406, 1.870131, 6.693808, 120.138077, -59.381210, 59.614822
1648227792.986270, 4.621258, -18.151790, 5.354183, -1.020789, 1.978350, 6.582531, 102.294449, -58.582428, 58.483536
1648227793.019578, 4.117578, -16.365266, 5.357774, -0.770300, 1.008144, 5.089864, 91.308350, -54.623840, 58.128677
1648227793.052914, 8.521712, -12.755558, 7.160309, -0.411506, 0.845604, 3.209471, 83.804672, -49.989716, 58.646896
1648227793.086245, 7.821408, -6.441899, 4.951658, 0.597279, -1.969912, -0.532399, 80.737091, -48.182587, 62.531677
1648227793.119580, 7.087735, -9.526079, 2.283171, 1.025194, -0.805922, -2.890107, 83.572647, -49.594330, 65.809402
1648227793.152909, -18.056770, -19.871425, -6.229114, 0.230712, -0.018883, -1.920115, 86.853226, -49.831253, 66.706085
1648227793.186245, 8.012345, -17.288680, -1.777844, 1.030082, 3.040881, -4.060215, 95.824783, -49.738007, 68.534668
1648227793.219578, 6.487838, -9.555109, 2.889502, 1.276735, 2.643126, -3.033581, 102.272720, -49.228241, 70.380676
1648227793.252911, 6.509535, -10.130615, 10.868778, 0.740781, -0.327306, -1.894470, 105.890228, -48.223969, 72.058136
1648227793.286268, 6.158784, -9.017162, 5.115511, 0.248014, -3.267776, -0.965235, 107.927643, -47.990845, 72.743500
1648227793.319583, -2.417994, -10.766575, -1.633444, 0.317265, -1.401053, -0.863289, 108.965546, -47.993134, 73.692780
1648227793.352914, 1.090559, -9.557653, 1.864933, 0.341297, 0.882559, -0.755569, 110.684967, -47.095459, 74.079147
1648227793.386246, 4.558111, -9.286360, 3.787627, 0.226264, -1.307928, -0.380607, 111.675644, -46.964249, 74.850784
1648227793.419598, -0.888398, -8.815451, 2.937536, 0.168817, -0.784722, -0.424230, 112.253616, -46.687134, 75.081223
1648227793.452926, 0.535104, -9.932495, 2.387318, 0.154557, -0.209567, -0.610735, 113.416000, -46.366699, 75.222305
1648227793.486258, 0.282516, -9.273641, 3.060089, 0.140881, -0.555412, -0.656584, 114.193146, -45.987823, 75.686737
1648227793.519583, -0.404171, -9.288754, 2.505981, 0.154728, -0.468758, -0.876718, 115.892807, -45.590088, 75.764984
1648227793.552992, -0.448913, -9.152883, 1.873014, 0.205197, -0.333392, -1.131916, 117.597137, -44.738464, 75.930389
1648227793.586295, -1.183633, -9.924564, 2.436549, 0.231755, -0.386062, -1.511868, 119.539459, -43.888977, 76.157425
1648227793.618682, -1.542315, -10.312724, 3.099593, 0.244780, -0.343102, -1.918393, 121.965897, -42.415390, 76.476349
1648227793.652926, -1.923442, -11.381586, 2.707543, 0.258317, -0.492163, -2.386338, 125.985046, -40.122070, 76.822937
1648227793.685806, -1.083376, -14.912135, 2.515258, 0.206510, -0.809387, -2.967688, 129.586426, -36.924500, 76.312286
1648227793.719657, -3.241899, -16.792332, 2.612972, 0.048806, -0.788659, -3.472507, 133.479401, -33.139923, 75.724945
1648227793.752015, -4.046949, -17.811364, 3.896713, -0.060713, -1.630588, -3.339190, 138.274551, -26.696701, 74.172989
1648227793.786256, -6.345682, -19.063531, 3.731513, -0.350162, -3.196930, -2.630181, 140.134781, -22.160400, 70.853882
1648227793.819587, -1.779341, -12.037148, 2.812439, 0.367314, 1.223777, -3.300536, 142.583176, -16.600464, 69.970825
1648227793.852928, 9.640403, -6.810606, 4.038270, 0.483687, 1.550319, -1.496476, 144.143707, -12.913559, 72.375458
1648227793.886251, 1.070059, -4.292654, 1.967585, -0.076000, 0.367573, 1.097073, 143.627151, -12.459396, 72.971756
1648227793.919581, 1.156848, -1.292121, 1.568501, -0.146255, 0.503617, 2.163452, 141.314987, -13.669891, 73.507568
1648227793.952925, 1.072153, -2.705448, 2.051382, -0.377389, 1.155391, 3.075792, 137.941635, -15.003937, 73.670563
1648227793.986255, 2.595464, -2.759317, 2.166304, -0.618133, 1.246417, 4.132899, 132.006668, -16.044464, 74.083496
1648227794.019586, 2.877830, -4.692486, 1.123180, -0.948215, 1.074970, 5.288022, 127.241013, -14.920883, 73.467804
1648227794.052932, 1.428889, -6.312462, 1.026514, -0.933955, 1.347775, 5.918781, 124.216034, -12.218140, 72.827621
1648227794.086276, 1.137695, -10.976517, 2.012775, -1.151285, 1.760663, 6.579073, 124.778122, -8.412003, 72.881851
1648227794.119621, 2.474856, -18.740165, 3.834164, -1.199973, 2.532667, 6.433655, 129.059860, -9.466919, 75.306305
1648227794.152920, 5.868787, -19.077597, 3.927987, -1.010424, 1.765505, 5.165882, 132.306961, -15.323944, 78.411362
1648227794.186272, 10.973674, -11.937639, 6.865074, -0.391162, 0.269079, 3.522588, 133.712448, -25.563034, 80.696655
1648227794.219587, 6.803274, -6.559215, 4.356549, 0.484026, -1.855582, -0.880059, 135.537949, -30.089203, 79.912598
1648227794.252920, 9.937733, -9.157522, 2.294094, 0.801144, -1.082076, -2.827826, 140.107361, -31.264648, 79.796906
1648227794.286254, -15.097836, -19.135657, 0.839018, -0.163381, -2.079647, -0.748403, 145.219162, -33.248291, 78.176941
1648227794.319587, 11.678018, -18.084902, -0.549769, 1.124046, 2.078820, -3.668579, 149.377686, -33.390625, 81.881760
1648227794.352919, 5.445612, -10.918757, 3.827730, 1.369212, 1.082328, -3.006474, 152.881805, -31.433304, 85.316727
1648227794.386258, 7.086538, -4.143166, 11.634773, 1.032403, -0.045748, -2.049304, 155.691345, -29.579895, 87.203629
1648227794.419584, 6.076783, -12.078149, 2.873192, 0.357492, -2.634448, -0.708770, 158.114471, -28.404037, 83.907318
1648227794.452926, -3.865588, -10.623073, 1.594688, 0.297530, -0.147890, -0.732068, 159.145981, -27.381393, 82.446442
1648227794.486273, 1.064223, -10.268282, 2.813786, 0.228276, 0.201675, -0.694912, 159.736298, -26.866959, 83.040451
1648227794.519547, 2.223615, -8.397962, 5.357026, 0.160303, -1.460957, -0.274885, 160.306778, -26.413666, 81.609344
1648227794.552926, -1.442058, -8.702324, 2.273893, 0.129173, -0.298362, -0.560699, 160.764679, -26.028030, 80.506195
1648227794.586256, -0.155174, -9.742755, 3.067870, 0.140142, -0.417406, -0.636996, 161.373718, -25.399734, 80.132599
1648227794.619590, 0.167744, -9.111284, 2.693627, 0.167972, -0.683426, -0.747318, 162.630432, -24.623917, 79.101578
1648227794.652923, -0.782455, -8.708609, 2.526182, 0.244102, -0.523353, -1.105226, 163.684128, -23.650436, 78.053970
1648227794.686268, -1.523460, -9.173384, 2.207304, 0.310136, -0.411093, -1.386782, 165.088806, -21.923752, 77.401611
1648227794.718646, -0.399383, -10.125528, 2.867655, 0.339178, -0.245996, -1.620895, 166.845367, -20.312500, 77.262680
1648227794.752850, 0.845752, -10.898556, 3.453935, 0.285197, -0.689183, -1.889158, 169.339233, -17.558624, 76.385345
1648227794.786268, -2.349161, -11.755231, 2.262371, 0.257553, -0.430833, -2.395449, 171.541779, -14.683823, 75.224380
1648227794.819595, -0.287304, -13.893852, 2.848501, 0.326053, -0.808546, -2.783960, 173.955734, -11.753860, 74.570877
1648227794.852937, -3.181146, -16.506524, 3.340959, 0.176624, -1.380919, -3.161669, 177.287476, -7.064636, 71.876099
1648227794.885354, -2.437597, -19.467553, 2.794183, 0.013143, -3.114411, -2.797719, 179.311386, -4.105286, 67.225906
1648227794.919595, -8.658630, -17.673697, 1.458817, 0.017535, -2.610783, -2.816339, 180.653915, -2.948929, 60.208740
1648227794.952930, 0.796671, -13.560160, 6.096386, 0.095548, 0.479394, -3.035811, 184.720657, -0.911819, 60.042267
1648227794.986273, 10.676344, -7.041646, 5.247791, 0.055709, 1.551534, -1.148818, 186.902451, -2.380219, 63.158447
1648227795.018900, 2.465429, -6.279991, 1.865682, -0.357209, -0.685366, 0.850442, 187.234985, -7.727463, 64.248749
1648227795.052010, 1.930175, -1.868225, 0.987907, -0.324985, 0.287457, 2.037481, 186.003510, -16.447800, 64.371307
1648227795.086263, 2.116025, -2.431162, 2.426972, -0.574624, 0.636006, 3.402857, 181.991913, -30.423691, 65.296692
1648227795.119599, 2.088642, -2.339883, 1.811662, -0.703761, 0.850635, 4.389282, 175.681290, -42.864471, 66.052353
1648227795.152928, 1.780239, -3.415029, 2.379088, -0.976636, 1.279469, 5.116375, 166.259567, -55.689697, 66.767197
1648227795.186259, 1.106420, -5.406107, 2.186355, -1.019516, 1.394061, 6.003662, 146.728439, -71.458893, 65.970856
1648227795.219595, 2.321478, -8.583812, 1.709011, -0.436213, 1.144107, 6.629201, 126.844330, -79.541489, 64.810165
1648227795.252954, 2.998289, -18.329409, 8.607903, -0.512422, 2.110333, 6.740658, 103.764221, -81.172852, 63.025406
1648227795.286287, 6.561310, -18.713679, 7.607725, -0.800137, 0.189571, 5.304517, 77.714447, -73.002502, 59.465347
1648227795.319617, 7.383868, -13.960291, 5.569661, -0.237450, 0.865870, 3.443727, 65.864594, -63.829132, 57.485046
1648227795.352952, 6.410176, -6.990919, 1.898153, 0.946988, -1.276461, -0.895949, 63.058472, -59.259537, 59.468689
1648227795.385837, 6.556821, -9.869348, 1.041777, 1.029730, 0.197298, -3.154637, 68.762833, -59.958038, 61.974365
1648227795.419609, -13.833099, -14.664485, 4.027795, -0.086444, -0.109205, -1.141600, 73.612900, -59.069458, 61.896378
1648227795.452930, 10.796802, -18.759468, -3.652654, 0.841108, 2.474115, -3.897877, 81.774323, -57.453873, 62.348633
1648227795.486268, 2.745102, -12.014254, 3.259556, 1.176145, 1.437546, -3.226824, 90.826187, -56.818146, 63.828400
1648227795.519599, 4.878784, -6.096835, 9.037213, 0.970051, -0.186145, -2.162188, 98.660980, -55.998276, 66.056183
1648227795.552930, 6.954857, -10.202441, 4.903624, 0.374620, -2.466053, -1.158095, 101.601044, -55.714874, 67.748093
1648227795.586298, -1.888726, -10.684723, 2.036418, 0.324647, -0.980736, -0.999081, 103.174164, -55.049988, 68.763184
1648227795.619619, 2.547431, -10.019734, 2.646191, 0.206230, 0.262353, -0.799460, 105.449692, -54.293442, 69.213547
1648227795.652935, 2.790143, -8.409633, 4.661361, 0.123835, -0.902830, -0.491551, 106.714615, -53.862808, 70.097244
1648227795.686265, 0.240917, -8.668656, 2.878728, 0.117986, -0.553603, -0.452363, 107.825256, -53.253571, 70.127090
1648227795.719600, 1.199345, -9.343372, 3.037045, 0.096905, -0.299431, -0.518358, 108.908859, -52.893570, 70.385300
1648227795.752494, 1.563563, -9.207351, 3.019088, 0.111037, -0.670471, -0.511007, 109.840530, -52.565826, 70.702911
1648227795.786267, -0.894234, -9.271247, 3.102885, 0.106729, -0.511823, -0.716555, 111.395081, -52.095398, 70.842316
1648227795.819607, -0.351499, -8.865130, 2.738368, 0.153876, -0.600979, -1.054762, 112.759415, -51.025375, 70.774796
1648227795.852932, -2.774132, -10.407445, 2.781913, 0.190841, -0.509717, -1.493675, 115.925369, -49.909790, 71.292725
1648227795.886269, -2.385074, -10.752659, 2.982128, 0.209930, -0.359869, -1.995440, 119.538483, -47.784210, 71.485092
1648227795.919606, -0.069881, -12.220305, 3.461716, 0.187523, -0.598725, -2.336038, 123.605225, -45.182068, 71.622467
1648227795.952934, -2.297386, -14.409952, 2.425326, 0.146505, -0.865794, -3.009142, 129.770538, -40.181763, 71.292984
1648227795.986268, -4.200776, -17.632397, 3.238008, 0.042433, -1.054685, -3.440331, 135.364319, -34.496521, 70.608536
1648227796.019602, -1.781136, -20.505739, 3.309385, 0.057779, -2.997831, -2.961000, 140.019531, -27.534515, 68.061905
1648227796.052932, -5.661688, -12.862400, 3.965247, 0.009976, -2.220600, -3.099618, 144.398483, -18.965347, 63.473099
1648227796.085948, 2.195184, -12.362161, 2.089240, 0.314706, 0.757913, -2.010411, 149.312836, -11.717300, 63.070770
1648227796.119600, 10.152463, -6.117036, 4.430171, 0.313260, 1.398238, -0.967191, 154.102844, -7.085770, 65.184769
1648227796.152939, 0.270545, -3.062782, 1.417367, 0.058700, 0.861044, 1.408637, 159.786011, -6.004532, 68.562790
1648227796.186312, 1.110760, -0.937180, 1.233912, 0.180357, 0.957126, 2.306412, 164.220306, -9.198608, 72.012268
1648227796.219602, 2.880524, -2.370260, 1.616086, -0.052119, 1.039873, 3.451740, 168.114700, -15.850235, 76.488098
1648227796.252953, 2.942324, -4.000412, 1.400458, -0.568661, 0.446883, 4.755042, 169.132675, -26.857819, 80.396072
1648227796.286280, 2.309208, -4.816386, 0.665289, -0.627126, 0.390972, 5.537848, 163.441956, -45.943604, 85.580124
1648227796.319605, 0.787692, -7.776966, 0.938826, -0.617360, 0.894682, 6.064573, 152.837463, -60.591476, 89.297562
1648227796.352935, -0.114024, -12.646173, 1.125125, -0.576652, 1.967457, 6.605484, 135.820984, -72.928284, 93.912766
1648227796.386288, 3.523966, -19.618986, 4.460248, -0.903305, 2.283867, 6.051177, 108.287125, -78.941406, 95.541428
1648227796.419603, 5.869685, -17.549947, 4.655375, -0.940477, 1.187322, 4.835789, 92.343811, -77.243225, 93.965256
1648227796.452935, 7.786243, -10.649409, 6.449680, -0.198401, 0.985341, 2.981808, 81.977783, -73.842194, 93.200378
1648227796.486282, 5.579088, -7.911939, 3.418621, 0.698164, 0.129873, -1.898107, 82.579102, -72.752960, 96.561478
1648227796.519612, 8.274660, -9.568876, 4.290409, 0.958103, 0.906590, -3.401193, 89.351135, -74.366333, 99.807953
1648227796.552939, -20.778079, -20.495713, -8.290372, 0.589491, -0.641148, -1.990884, 94.122055, -74.274673, 102.371246
1648227796.586298, 5.796362, -12.420370, -1.885583, 1.234065, 0.860349, -3.308764, 102.854507, -74.358871, 103.039581
1648227796.619622, 7.251289, -6.123320, 4.438102, 1.500881, 1.156427, -2.623443, 111.004333, -73.314606, 105.777573
1648227796.652950, 5.617545, -10.460866, 9.381081, 0.679363, -0.608236, -1.750062, 115.774155, -72.321457, 107.633179
1648227796.686287, 1.604115, -10.502465, 1.802235, 0.373741, -2.174930, -0.909241, 120.094421, -71.211624, 107.928070
1648227796.719621, -1.387141, -10.285939, 2.185607, 0.261268, 0.401748, -0.918706, 123.937393, -70.010605, 108.065521
1648227796.752943, 3.041085, -9.593566, 3.727772, 0.208238, -0.095930, -0.603056, 125.164886, -69.494675, 108.324753
1648227796.786305, 1.840991, -8.712500, 4.080468, 0.075566, -1.035104, -0.294534, 127.029785, -69.270035, 107.796936
1648227796.819611, -0.909946, -9.283667, 2.362927, 0.076259, -0.314132, -0.402573, 128.686600, -68.660248, 107.319916
1648227796.852941, 0.524629, -9.632023, 3.061585, 0.094639, -0.517957, -0.447201, 130.055725, -67.926254, 106.845901
1648227796.886282, 0.002095, -8.755745, 2.844910, 0.132171, -0.607664, -0.573636, 131.681946, -67.470657, 106.639740
1648227796.919620, -1.798644, -9.033173, 2.894141, 0.176599, -0.378302, -0.957541, 134.578812, -65.709152, 106.381073
1648227796.952953, -0.042198, -9.186402, 2.721609, 0.242129, -0.305181, -1.170658, 137.188812, -64.819778, 105.894638
1648227796.986278, 0.622941, -10.168025, 3.234267, 0.244490, -0.501254, -1.305223, 140.286377, -63.193146, 105.970795
1648227797.019610, -2.563143, -10.134057, 3.306991, 0.240003, -0.362118, -1.853930, 143.521759, -61.396774, 105.867157
1648227797.052947, -0.314987, -11.828703, 2.594267, 0.244315, -0.421544, -2.256028, 148.867111, -57.519241, 104.949799
1648227797.086355, 0.410157, -13.202975, 2.030133, 0.252344, -0.829189, -2.635850, 153.536453, -53.720886, 103.272751
1648227797.119609, -3.793613, -16.209643, 3.763236, 0.032222, -0.949540, -3.302940, 158.493454, -48.984344, 100.289352
1648227797.152948, -2.159271, -19.094656, 4.260631, -0.096476, -2.470325, -3.024446, 163.829605, -41.128799, 93.392776
1648227797.186265, -5.817461, -19.599084, 1.832761, -0.040858, -3.183017, -2.687325, 165.764069, -35.639267, 84.330048
1648227797.219596, 0.622044, -14.192528, 3.702932, 0.067323, 1.182099, -2.699152, 166.080811, -28.427002, 80.757950
1648227797.252964, 9.360580, -7.292289, 3.436128, 0.180576, 1.709074, -1.435873, 163.722107, -21.429932, 79.748428
1648227797.286280, 0.824054, -6.384887, 1.439514, -0.509805, 0.264197, 0.579528, 161.035522, -18.983551, 77.624405
1648227797.319610, 1.831564, -1.605163, 1.714697, -0.471281, 0.661721, 1.954405, 158.344238, -19.122040, 74.745819
1648227797.352959, 3.121590, -2.809745, 2.146851, -0.834008, 0.529111, 3.409933, 155.251190, -20.635986, 72.244003
1648227797.386348, 2.746748, -3.555240, 2.267309, -1.093320, 0.623501, 4.495109, 151.375427, -24.946259, 68.564987
1648227797.419623, 2.135179, -4.409820, 1.967136, -1.157827, 0.774620, 5.388153, 147.859558, -29.404541, 64.908875
1648227797.452965, 0.873135, -7.273285, 1.546954, -0.885152, 0.906442, 6.237464, 144.128876, -35.552414, 60.883118
1648227797.486283, 2.723704, -12.072163, 3.045125, -0.712185, 1.334304, 6.654117, 136.070145, -44.875534, 56.296707
1648227797.519622, 4.468328, -17.535283, 4.505289, -0.738730, 1.501567, 6.585949, 126.613373, -51.331604, 53.881241
1648227797.552947, 5.251083, -17.108067, 5.479729, -0.532752, 0.776746, 5.160641, 115.875809, -54.039368, 51.864090
1648227797.586280, 7.206697, -12.479178, 6.248866, -0.358085, 0.361619, 3.293344, 104.767593, -53.013962, 50.483627
1648227797.618984, 7.390751, -7.081899, 3.353828, 0.567749, -1.597331, -0.256365, 102.516617, -51.768402, 50.736816
1648227797.652948, 7.437288, -9.927557, 0.849642, 0.998423, 0.038398, -3.267085, 106.322968, -51.631088, 52.366745
1648227797.686273, -6.910115, -15.902287, 3.380014, -0.211428, -0.556355, -1.271588, 112.892426, -50.424118, 53.432343
1648227797.719614, -1.826776, -17.531392, -5.217414, 0.375862, 1.286997, -3.026851, 118.924225, -48.982162, 54.563217
1648227797.752944, 4.092140, -14.946103, 2.699762, 1.052819, 1.363498, -3.279054, 126.903076, -47.498795, 57.730118
1648227797.786285, 7.145345, -3.599533, 8.094347, 1.193362, 0.913120, -2.289880, 133.295776, -46.216278, 60.961945
1648227797.819624, 7.373393, -11.873893, 7.588871, 0.371263, -1.591094, -1.377274, 137.128983, -44.544266, 61.674454
1648227797.852958, 0.367360, -10.133758, 1.245284, 0.311943, -2.171299, -0.798106, 137.392334, -43.827362, 60.660675
1648227797.886289, 0.438887, -10.301950, 1.646612, 0.235019, 0.618004, -0.844664, 139.345688, -43.062515, 60.953461
1648227797.919624, 4.274099, -9.616012, 3.780744, 0.124278, -0.663411, -0.525724, 140.793213, -42.258484, 61.544312
1648227797.952948, 1.027711, -8.920197, 3.913472, 0.077384, -1.041432, -0.339602, 140.717468, -42.179672, 60.670288
1648227797.986287, -0.525378, -9.469367, 2.577957, 0.063797, -0.328472, -0.475131, 141.402740, -41.734055, 60.020996
1648227798.019630, 0.724246, -9.530569, 3.080739, 0.087028, -0.729685, -0.488003, 142.067688, -41.006683, 59.728104
1648227798.052988, -0.843058, -9.338135, 2.735675, 0.086952, -0.437700, -0.691891, 142.860809, -40.550415, 59.476791
1648227798.086296, -0.800860, -9.165603, 2.672977, 0.116849, -0.314361, -0.998241, 144.203125, -39.862473, 59.303391
1648227798.119629, -0.750582, -9.655965, 2.229301, 0.181797, -0.426234, -1.290637, 146.069244, -38.668762, 59.326752
1648227798.152968, -2.955492, -10.160244, 2.803311, 0.219184, -0.041955, -1.682665, 149.461578, -36.095673, 59.840485
1648227798.186292, 0.998382, -10.846781, 3.545064, 0.116776, -0.399181, -2.026335, 152.504715, -33.782715, 59.809509
1648227798.219630, -1.077391, -12.608913, 2.523788, 0.047542, -0.461672, -2.428426, 156.003677, -30.805206, 60.276672
1648227798.252956, -2.480243, -13.592332, 2.690334, -0.013903, -0.643795, -2.939915, 161.009598, -25.322876, 60.094543
1648227798.286347, -3.738247, -17.015442, 3.933224, -0.170289, -1.264570, -3.322123, 164.924835, -20.289276, 59.217773
1648227798.319628, -4.207809, -19.517981, 1.908478, -0.010250, -2.749412, -2.871378, 168.060776, -15.137390, 56.608856
1648227798.352951, -4.015076, -13.234099, 6.353014, -0.232391, -1.141693, -3.313180, 172.679474, -8.158890, 55.156006
1648227798.386357, 2.452261, -11.673379, 5.683535, 0.102596, 1.295970, -2.446033, 177.580627, -3.824280, 59.191467
1648227798.419692, 8.701576, -6.814347, 6.497265, -0.144882, 1.347315, -0.610041, 182.032089, -1.679153, 65.731995
1648227798.452963, 0.274286, -4.016423, 1.653795, -0.119092, 0.490160, 1.141054, 185.203217, -3.721680, 70.423340
1648227798.486296, 2.142960, -1.698985, 1.745223, -0.175954, 0.400896, 2.133003, 188.376495, -12.033615, 75.900024
1648227798.519629, 2.989759, -3.131616, 1.413776, -0.498600, 0.176860, 3.751183, 189.202682, -22.073853, 79.254745
1648227798.552958, 2.680309, -3.470994, 1.449240, -0.634110, 0.138180, 4.724524, 187.647491, -35.900330, 81.609070
1648227798.586312, 1.929876, -4.170250, 0.832883, -0.574710, 0.524311, 5.510334, 179.637604, -57.594986, 84.713745
1648227798.619640, 0.685191, -8.444499, 1.563114, -0.593033, 1.247574, 6.322877, 168.058960, -75.401855, 87.710220
1648227798.652974, 1.237802, -13.958495, 1.326687, -0.544122, 2.060254, 6.802666, 149.692734, -92.837769, 90.956741
1648227798.686299, 2.688838, -19.395877, 4.646846, -0.657966, 2.380084, 6.139103, 116.772797, -108.772263, 92.390839
1648227798.719638, 5.315427, -17.116896, 4.097826, -0.641966, 1.556550, 4.751009, 93.495255, -112.161087, 89.894913
1648227798.752984, 11.382035, -10.201843, 6.403741, -0.060801, -0.072915, 1.689645, 77.182251, -112.148697, 87.239777
1648227798.786311, 6.951565, -7.593959, 4.091990, 0.721163, -1.099892, -1.757522, 75.765564, -114.758850, 91.330856
1648227798.819702, 2.954146, -14.236222, 4.508581, 0.110998, 0.513260, -3.125730, 83.355240, -118.795074, 93.130600
1648227798.852955, 0.670376, -17.098490, -3.615245, 0.914271, 2.415897, -3.974844, 90.653625, -119.896713, 93.312897
1648227798.886291, 9.195380, -11.729942, 1.259949, 1.388470, 1.194094, -3.287159, 102.619705, -119.471313, 95.850708
1648227798.919630, 5.465214, -5.528960, 8.583063, 1.181329, -0.134601, -2.382460, 114.314651, -117.795670, 99.854675
1648227798.952957, 5.357325, -10.068815, 3.724480, 0.472340, -1.933316, -1.262562, 120.522842, -116.742950, 100.882675
1648227798.986325, -1.753753, -10.540323, 3.084480, 0.282161, -0.272126, -1.080496, 124.973038, -115.666748, 101.697479
1648227799.018883, 2.918532, -10.183737, 2.503886, 0.184016, 0.242382, -0.887122, 128.863052, -114.299408, 102.324661
1648227799.052980, 2.128894, -8.788216, 4.310760, 0.088674, -1.061246, -0.417258, 131.090195, -113.243530, 102.237183
1648227799.086312, -0.383970, -9.481936, 2.380585, 0.088836, -0.576500, -0.494760, 132.946014, -112.432602, 101.915237
1648227799.119668, 0.764050, -9.329156, 2.250998, 0.125489, -0.430593, -0.590256, 135.707169, -111.312576, 101.960281
1648227799.152976, 0.487519, -8.955362, 3.000384, 0.154731, -0.505009, -0.649943, 137.863785, -110.230759, 101.619461
1648227799.186312, -0.016161, -8.855553, 2.697068, 0.192074, -0.591412, -0.917740, 140.719116, -109.059784, 101.682480
1648227799.219638, -0.561141, -9.275736, 2.668338, 0.214454, -0.366978, -1.154990, 143.941315, -107.675613, 101.829910
1648227799.252282, 1.626261, -9.719561, 2.561197, 0.226721, -0.468837, -1.298627, 149.368958, -105.256958, 102.043716
1648227799.286345, -1.349731, -10.481216, 3.058892, 0.171173, -0.352680, -1.705388, 154.050552, -102.777924, 101.827042
1648227799.319617, -0.842310, -11.763760, 3.330634, 0.150310, -0.439043, -2.116501, 159.449097, -99.048660, 101.254745
1648227799.352951, -1.149965, -12.988095, 2.562245, 0.114886, -0.536939, -2.547288, 167.804291, -92.567749, 100.149353
1648227799.386307, -1.999607, -13.831602, 3.054552, 0.002845, -1.066183, -3.093479, 174.357346, -85.588165, 98.137451
1648227799.418918, -2.706795, -18.135479, 3.338265, -0.037197, -2.090926, -3.017318, 181.093887, -77.523224, 94.473679
1648227799.452973, -3.935020, -19.080141, 1.916558, -0.084439, -3.098443, -2.784894, 186.764481, -65.613327, 85.872238
1648227799.486313, -0.401478, -15.923087, 5.719897, 0.029989, 0.025360, -2.985649, 189.614258, -55.609055, 84.708969
1648227799.519140, 6.441450, -8.463353, 4.336049, 0.244910, 2.012457, -2.225907, 190.674561, -47.386139, 89.342209
1648227799.552966, 3.531896, -8.208670, 2.803610, -0.255268, 1.549122, -0.229008, 187.656387, -43.616318, 97.630493
1648227799.586295, 2.908506, -1.362151, 2.786851, -0.517425, 1.687664, 1.488614, 182.578293, -45.768036, 102.328766
1648227799.619628, 4.171597, -1.815703, 2.560898, -0.936402, 1.164913, 2.740503, 175.713242, -51.729095, 105.482025
1648227799.652984, 4.168754, -1.485901, 2.539200, -1.301267, 0.409597, 3.933988, 166.184875, -59.884094, 106.180389
1648227799.686310, 3.520225, -2.215534, 2.181866, -1.486133, -0.086515, 5.010994, 148.410477, -71.805527, 103.930145
1648227799.719718, 1.427094, -3.044676, 1.428590, -1.011422, -0.438254, 6.270473, 130.809799, -78.319565, 101.992844
1648227799.752980, 0.896629, -8.335263, 1.414075, -0.482590, 0.599677, 6.756564, 109.710312, -80.412491, 103.008728
1648227799.786322, 5.262006, -15.918897, 3.829825, -0.659944, 1.245851, 6.876044, 80.141556, -73.855240, 104.058792
1648227799.819639, 1.670704, -18.170195, 3.446753, -0.827789, 2.103968, 5.490402, 62.394073, -63.706406, 103.248642
1648227799.852965, 3.720739, -17.299903, 4.787805, -0.351974, 2.720894, 4.091839, 49.965805, -51.771088, 100.065994
1648227799.886305, 11.688343, -9.749040, 6.455815, 0.029189, -1.002216, 1.239446, 44.714127, -40.750000, 101.526062
1648227799.919643, 5.189881, -8.630050, 1.909376, 0.765622, -0.979911, -2.471299, 48.275375, -39.052414, 106.176773
1648227799.952973, -0.337882, -14.399477, 2.748394, -0.032865, -0.725986, -2.156883, 52.084503, -38.833038, 109.124329
1648227799.986330, -15.441853, -15.188217, -5.413589, 0.503143, 1.827028, -2.458259, 54.932709, -38.135223, 109.503448
1648227800.019646, 10.046818, -15.223232, 3.610456, 1.336222, 1.541695, -3.250385, 59.502365, -40.056213, 107.421310
1648227800.052979, 4.110695, -5.360169, 6.249914, 1.001660, 0.757683, -2.243124, 63.099472, -41.040939, 107.556381
1648227800.086311, 8.482357, -9.799617, 8.637980, 0.346823, -1.220324, -1.323915, 66.043259, -41.319443, 108.377579
1648227800.119645, 0.976535, -11.074978, 0.692373, 0.300220, -1.791489, -0.779806, 70.125610, -41.881012, 112.064224
1648227800.152977, -0.257526, -10.711658, 1.339257, 0.263305, 0.838404, -0.871108, 71.141449, -41.964401, 111.358627
1648227800.186040, 3.063231, -9.496302, 3.892224, 0.174222, -0.738238, -0.526449, 72.380676, -42.124466, 111.570480
1648227800.219638, 0.598251, -8.451382, 2.494758, 0.166700, -0.782682, -0.394548, 74.782394, -42.159378, 113.276016
1648227800.252977, 0.642843, -9.533112, 2.266411, 0.206975, -0.019218, -0.486212, 75.412384, -42.047211, 113.583557
1648227800.286386, 0.984017, -9.034071, 2.825008, 0.222267, -0.592798, -0.435083, 76.713593, -42.128250, 114.247726
1648227800.319641, -0.803404, -9.207202, 3.083133, 0.186491, -0.353600, -0.653985, 78.281326, -42.218445, 114.812271
1648227800.352979, -0.029778, -9.777620, 2.412607, 0.206953, -0.401490, -0.825448, 80.303299, -41.962814, 115.504898
1648227800.386366, 0.317381, -10.017789, 2.915689, 0.176653, -0.453384, -0.963091, 82.023453, -41.768402, 116.177490
1648227800.419648, -1.350928, -9.512163, 3.059042, 0.199477, -0.713428, -1.220175, 84.532196, -41.976593, 116.414642
1648227800.452128, -2.933196, -9.906009, 2.939481, 0.231263, -0.332725, -1.697760, 88.513779, -41.443649, 117.428314
1648227800.486323, -0.370203, -10.166379, 2.509872, 0.272819, -0.531415, -2.189255, 91.997162, -40.419586, 117.490112
1648227800.519658, -0.065990, -11.730541, 2.609081, 0.292391, -0.558689, -2.568032, 95.925034, -39.067169, 117.973892
1648227800.552349, 0.436493, -14.410999, 3.095403, 0.276795, -0.780339, -2.853904, 102.358505, -36.799072, 118.217880
1648227800.586318, 0.507271, -17.776498, 4.972607, 0.386396, -2.281435, -2.717275, 108.242706, -33.775589, 118.079453
1648227800.619651, -4.056227, -17.710658, 3.337367, 0.168142, -3.235456, -2.166444, 115.176376, -29.768234, 116.511551
1648227800.652979, 1.150863, -11.473763, 4.295946, 0.329202, -0.953706, -2.544796, 121.115417, -22.975937, 114.410919
1648227800.686306, 10.704625, -6.568792, 3.288735, 0.283511, -0.383670, -0.887121, 123.038605, -18.333084, 112.755722
1648227800.719702, -0.898275, -4.564097, 0.287903, 0.173986, -0.771789, 0.514474, 123.981918, -15.240875, 110.530228
1648227800.752970, -0.108936, -1.126771, 0.230592, 0.212817, 0.514479, 1.438261, 123.945465, -12.905212, 109.790588
1648227800.786304, 2.567033, -3.316269, 0.430807, -0.026462, 1.126770, 2.612032, 121.583099, -10.734680, 109.003204
1648227800.819653, 2.238130, -4.033931, 0.634613, -0.429889, 1.494140, 3.577764, 118.845718, -10.007401, 108.900101
1648227800.852988, 2.770091, -6.092944, -0.167744, -0.702232, 1.410252, 4.164251, 115.422638, -9.530380, 108.871613
1648227800.886310, 5.472846, -8.750059, 3.315071, -1.240896, 0.552206, 5.171800, 111.948898, -9.395325, 107.528000
1648227800.919734, 5.256021, -11.231499, 1.388936, -1.045178, 0.538904, 5.494576, 109.364731, -8.550674, 106.358566
1648227800.952977, 5.172673, -14.148684, 2.768296, -0.915657, 1.667256, 5.079352, 106.759689, -7.615829, 105.532288
1648227800.986312, 6.974160, -12.139201, 3.296067, -0.436000, 1.864013, 3.201073, 104.012741, -6.104919, 103.826477
1648227801.019647, 6.982390, -10.641478, 3.703980, -0.214032, 0.904766, 2.425944, 103.282410, -5.065155, 103.143188
1648227801.052997, 3.622277, -10.358065, 2.390012, 0.060564, -0.026704, 1.369964, 103.716873, -4.046585, 102.341507
1648227801.086314, 3.639187, -8.756344, 1.254412, 0.076837, -0.439955, -0.061687, 104.836456, -3.289017, 102.093201
1648227801.119727, 1.042974, -7.787889, 1.987187, 0.390963, 1.082542, -1.436886, 105.684525, -2.157547, 101.581451
1648227801.152995, -9.861118, -16.238822, -0.738761, 0.783684, -0.512688, -0.544481, 106.613907, -1.338898, 101.088654
1648227801.186417, 11.572523, -25.701007, 4.875941, 0.052339, -0.281014, -2.169184, 107.267334, -1.203369, 101.410736
1648227801.219665, -0.206949, -4.193145, 5.064335, 0.532669, 0.157805, -1.142982, 107.453705, -0.992691, 101.360474
1648227801.252974, 3.405602, -11.859528, 5.153669, 0.117305, -1.017153, -0.329864, 107.786591, -0.931351, 101.097000
1648227801.286322, -2.992902, -9.988310, 0.281917, 0.176665, -0.298163, -0.238369, 108.520905, -0.776657, 101.176163
1648227801.319654, 2.249652, -9.131635, 2.681805, 0.075979, -0.253621, -0.113066, 108.272217, -0.642349, 101.299728
1648227801.352991, -1.927332, -9.183409, 2.165106, 0.065357, -0.287705, -0.070336, 108.848618, -0.662872, 101.259201
1648227801.386323, -0.140510, -9.464279, 1.995717, 0.017853, -0.463279, -0.033455, 109.098633, -0.671188, 101.158493
1648227801.419657, -2.238728, -9.548824, 1.810615, -0.009150, -0.175342, -0.164409, 109.496063, -0.920334, 101.249084
1648227801.452990, -0.717213, -9.347711, 2.351256, -0.031789, -0.484489, -0.121606, 109.803925, -0.959137, 101.115295
1648227801.486324, -1.537975, -9.638158, 1.606060, -0.044191, -0.020033, -0.246992, 110.141113, -1.148224, 100.687393
1648227801.519653, -0.328305, -9.832837, 2.012326, -0.083843, -0.196718, -0.141248, 110.316116, -1.004669, 101.041351
1648227801.553001, -1.591845, -9.197625, 1.395670, -0.077964, 0.015950, -0.217139, 110.627106, -1.276260, 100.482315
1648227801.586305, 2.090886, -9.184008, 1.626112, -0.069938, -0.204308, -0.123922, 110.711258, -1.270233, 100.730743
1648227801.619678, -0.743998, -9.812785, 2.654870, -0.187404, -0.153784, -0.085792, 110.786331, -1.288574, 100.547852
1648227801.652997, -1.637784, -9.375993, 1.898752, -0.242373, -0.124761, -0.183430, 111.064697, -1.438446, 100.513260
1648227801.686322, -1.497872, -10.267235, 2.468572, -0.325077, -0.280125, -0.261369, 111.372269, -1.703949, 100.052811
1648227801.719652, -1.991377, -9.788394, 2.395997, -0.338237, -0.147866, -0.203959, 111.776459, -2.047958, 99.518753
1648227801.752995, 0.310049, -9.374796, 0.680253, -0.352255, -0.010627, -0.174296, 111.840073, -2.300781, 99.297455
1648227801.786327, -0.252289, -9.512762, 0.303764, -0.318964, 0.114381, -0.179319, 111.874054, -2.724899, 99.425613
1648227801.819655, -0.395492, -9.501988, 1.074398, -0.310048, 0.269426, -0.233622, 111.857498, -2.661682, 99.081955
1648227801.852985, -0.733374, -10.102633, 1.734001, -0.346963, 0.098787, -0.176393, 111.931396, -2.822662, 98.686447
1648227801.886326, 0.276979, -9.723003, 0.910096, -0.347964, 0.048177, -0.148451, 112.190750, -3.133850, 98.542603
1648227801.919686, 0.185850, -9.620202, 0.720954, -0.320789, -0.090224, -0.092725, 112.324173, -3.199661, 98.196106
1648227801.952985, -0.050428, -9.588329, 0.145897, -0.300578, -0.038023, -0.072344, 112.563263, -3.329178, 97.626236
1648227801.986324, 0.053720, -9.663148, 0.444424, -0.268290, -0.068849, -0.051981, 112.473206, -3.570221, 97.819489
1648227802.019658, -0.718560, -9.850045, 0.121955, -0.240224, -0.094896, -0.069998, 112.568604, -3.591019, 97.419281
1648227802.052978, -0.279673, -9.887754, 0.386514, -0.223286, 0.053026, -0.094157, 112.843689, -3.711655, 97.242218
1648227802.086395, -0.442029, -9.766996, 0.368707, -0.184086, -0.025153, -0.073251, 112.849014, -3.865265, 97.175812
1648227802.119693, -0.351349, -10.209026, 0.001496, -0.177388, 0.188604, -0.120316, 112.891235, -4.114319, 97.348541
1648227802.153008, 0.311994, -9.411158, 0.744896, -0.183404, -0.041345, -0.072012, 112.934738, -4.084854, 97.055435
1648227802.186367, 0.434398, -9.840169, 0.303465, -0.159979, -0.087351, -0.054463, 113.004593, -4.249496, 96.849228
1648227802.219731, -0.406116, -9.931148, -0.753725, -0.098920, -0.104933, -0.045531, 113.145798, -4.200882, 96.849960
1648227802.253006, 0.075268, -9.949404, -0.115969, -0.082506, 0.013475, -0.071402, 113.303299, -4.371658, 96.405853
1648227802.286331, -0.060304, -9.659856, 0.153678, -0.081408, -0.106823, -0.047463, 113.506073, -4.267807, 96.599487
1648227802.319660, -0.098611, -9.736919, -0.021697, -0.077556, 0.021312, -0.059755, 113.374756, -4.336136, 96.169968
1648227802.352984, 0.411503, -9.799318, 0.181211, -0.077854, -0.119230, -0.015261, 113.514130, -4.310562, 96.023758
1648227802.386334, 0.183007, -9.720159, -0.210839, -0.062047, -0.031929, -0.008144, 113.501617, -4.185577, 96.126190
1648227802.419717, 0.027683, -9.854384, 0.146346, -0.047830, -0.095116, 0.008600, 113.511719, -4.319138, 96.301453
1648227802.452985, -0.050278, -9.793482, -0.012121, -0.046744, -0.066984, 0.006075, 113.535507, -4.531158, 96.211044
1648227802.486331, -0.158317, -9.935638, -0.019303, -0.038963, -0.025720, 0.002610, 113.703369, -4.478729, 95.874023
1648227802.519662, 0.173430, -9.859023, 0.004339, -0.039069, -0.025434, 0.019471, 113.684280, -4.657074, 96.210281
1648227802.552995, 0.070779, -9.738864, -0.082301, -0.030036, -0.039870, 0.029549, 113.778442, -4.374329, 95.879639
1648227802.586327, 0.064643, -9.873089, -0.072425, -0.032004, -0.018582, 0.036085, 113.999969, -4.595016, 95.871994
1648227802.619666, -0.042497, -9.691728, -0.184653, -0.019284, -0.020405, 0.025402, 113.940079, -4.711075, 95.643097
1648227802.653005, -0.102801, -9.865757, -0.026785, -0.017674, 0.020001, 0.011890, 113.782013, -4.593979, 95.725464
1648227802.685401, 0.002394, -9.827749, -0.126593, -0.008535, 0.031404, 0.002769, 113.836899, -4.694931, 96.226288
1648227802.719664, -0.029778, -9.838523, 0.021997, -0.003557, 0.051229, -0.010610, 113.729279, -4.717575, 96.279373
1648227802.752989, 0.175675, -9.756372, 0.035763, -0.017350, -0.019471, 0.009249, 113.743912, -4.579697, 95.869827
1648227802.786347, -0.125097, -9.831639, -0.143652, -0.018036, 0.036683, 0.007507, 113.761307, -4.541733, 95.763046
1648227802.819659, -0.043993, -9.804256, 0.057760, -0.024782, -0.023344, 0.027054, 113.577774, -4.431870, 95.718704
1648227802.852996, -0.150835, -9.780912, -0.154127, -0.022797, 0.023671, 0.018364, 113.384979, -4.450180, 95.783920
1648227802.886331, 0.080206, -9.757270, -0.116418, -0.012257, 0.007038, 0.022459, 113.697067, -4.648148, 95.785736
1648227802.919665, 0.042946, -9.761609, -0.164302, -0.011368, -0.021637, 0.025006, 113.566055, -4.580826, 96.160217
1648227802.952989, -0.269048, -9.840618, -0.079906, 0.002302, 0.000130, -0.004883, 113.659149, -4.455643, 95.850891
1648227802.986102, -0.241066, -10.005818, 0.103100, -0.016041, 0.043520, -0.062635, 113.458099, -4.468597, 96.187164
1648227803.019722, -0.709731, -9.633968, -0.423923, 0.021951, 0.118109, -0.091203, 113.539337, -4.271606, 95.710434
1648227803.052988, 0.239420, -9.660903, -0.001496, 0.037336, 0.047646, -0.087286, 113.793671, -4.440201, 95.796387
1648227803.086337, 0.119261, -9.694123, -0.019303, 0.092341, 0.022051, -0.084338, 113.761780, -4.423691, 96.039597
1648227803.119672, 0.443526, -9.933842, 0.116268, 0.001027, -0.042706, -0.006558, 113.816208, -4.532761, 95.728271
1648227803.153000, -0.080655, -9.719411, -0.194230, 0.002751, -0.039107, 0.015924, 113.909653, -4.598648, 95.749756
1648227803.186403, -0.075866, -9.898527, 0.090830, 0.010874, -0.033478, 0.007937, 113.823975, -4.616959, 96.134201
1648227803.219699, 0.292841, -9.873388, -0.048931, -0.028902, -0.079166, 0.007873, 113.782211, -4.512589, 96.202194
1648227803.253006, -0.218920, -9.732729, 0.137966, -0.007846, -0.057366, -0.014123, 114.018631, -4.476013, 95.846909
1648227803.286338, 0.071377, -9.723751, -0.045639, -0.015244, -0.102307, -0.016364, 113.993057, -4.689346, 95.881516
1648227803.319721, 0.142455, -9.815179, -0.150236, -0.019226, -0.106375, -0.018775, 113.972031, -4.364441, 96.081055
1648227803.353013, -0.022146, -9.726594, -0.322469, 0.007123, -0.019364, -0.029317, 114.213303, -4.494934, 95.517212
1648227803.386405, 0.232088, -9.880571, 0.022745, 0.000821, 0.011994, -0.016962, 114.184845, -4.480377, 95.925934
1648227803.419670, 0.235979, -9.730784, 0.043245, -0.011103, -0.055707, 0.007809, 114.151199, -4.534897, 95.886078
1648227803.453001, 0.069881, -9.880421, -0.085742, -0.004698, -0.028750, 0.009612, 114.181564, -4.660873, 95.642853
1648227803.485554, 0.052074, -9.752631, -0.137966, 0.004974, 0.003095, 0.007021, 114.153473, -4.661301, 95.740280
1648227803.519672, -0.078709, -9.818172, -0.144999, 0.011277, 0.022132, -0.014946, 114.449036, -4.440979, 95.669495
1648227803.553017, 0.022745, -9.752481, -0.197971, 0.027469, 0.017004, -0.012186, 114.234955, -4.471359, 95.564224
1648227803.586326, 0.397737, -9.682152, 0.060005, 0.007294, -0.011407, 0.000198, 114.207733, -4.427597, 95.721985
1648227803.619747, -0.222810, -9.679009, -0.100556, 0.027126, 0.010326, -0.018151, 114.079391, -4.426666, 95.716125
1648227803.653015, 0.241216, -9.896283, -0.163554, -0.006782, -0.000783, 0.018214, 114.097961, -4.501434, 95.710587
1648227803.686331, 0.156820, -9.848698, -0.021099, -0.008637, -0.047293, -0.002485, 114.204987, -4.320099, 95.745728
1648227803.719759, 0.054468, -9.736320, -0.036811, 0.004356, -0.030827, 0.009580, 114.447693, -4.545792, 95.741425