SamplingTime, AccelerationX, AccelerationY, AccelerationZ, GyroX, GyroY, GyroZ, MagneticFieldX, MagneticFieldY, MagneticFieldZ
1648228411.585229, , , , , , , , , 
1648228411.618840, -0.431405, -9.745299, -0.853683, -0.010017, -0.055727, 0.005711, 39.994446, -33.523422, 32.615158
1648228411.652165, -0.465971, -9.880870, -0.900220, -0.022114, -0.036224, -0.011790, 39.790482, -33.366852, 32.823898
1648228411.685496, -0.386813, -9.531317, -0.967557, 0.017947, 0.059704, 0.011332, 39.939392, -33.299637, 32.603241
1648228411.718837, -0.448314, -10.034548, -0.820613, 0.033611, 0.116986, 0.005346, 39.936356, -33.266190, 32.745483
1648228411.752163, -0.334889, -9.876680, -1.205331, 0.051571, 0.092222, -0.048699, 40.049728, -33.192337, 32.492310
1648228411.785501, -0.144550, -9.750536, -1.139341, 0.078038, 0.086625, -0.063305, 40.334305, -33.222000, 32.500732
1648228411.818917, -0.399682, -9.596858, -0.761805, 0.023927, 0.031323, -0.068779, 40.347031, -33.643677, 32.785507
1648228411.852184, -0.328006, -9.453805, -0.667234, 0.010462, 0.058992, -0.033240, 40.347610, -33.517746, 32.717422
1648228411.885511, -0.399083, -9.646538, -0.619799, 0.013452, 0.068034, -0.011378, 40.504837, -33.608780, 32.898636
1648228411.918841, -0.398934, -9.750237, -0.518195, 0.028979, 0.115529, -0.005698, 40.651413, -33.489166, 32.537125
1648228411.952176, -0.256030, -9.837625, -0.500089, 0.012295, 0.133303, 0.010746, 40.534454, -33.561920, 32.699768
1648228411.985502, -0.355988, -10.051607, -0.349553, -0.015893, 0.090198, 0.012292, 40.676682, -33.716461, 32.739563
1648228412.018847, -0.679205, -9.941473, -0.295983, -0.069401, 0.060626, -0.014716, 40.580063, -33.576675, 32.739410
1648228412.052165, -0.914585, -10.215011, -0.343119, -0.063577, 0.137364, -0.015292, 40.830536, -33.565414, 32.368439
1648228412.085516, -0.797419, -10.344597, -0.415544, -0.039947, 0.215030, -0.044555, 41.009140, -33.472198, 32.154816
1648228412.118830, -0.640748, -9.842713, -0.320823, -0.058583, 0.272804, -0.125921, 41.184723, -33.547974, 32.022156
1648228412.152222, -0.210690, -9.526079, -0.284760, -0.137018, 0.283869, -0.213964, 41.918030, -33.740692, 31.722198
1648228412.185494, 0.510863, -8.980052, 0.203657, -0.172425, 0.165728, -0.147885, 42.042694, -33.589249, 31.351578
1648228412.218837, 0.646285, -9.325266, 0.561141, -0.287197, -0.158290, -0.167824, 42.452332, -33.635971, 30.876923
1648228412.252177, 0.993145, -9.458443, -0.070629, -0.357259, -0.622857, -0.198866, 42.204010, -33.497391, 30.610260
1648228412.285545, 0.525228, -9.546131, -0.779013, -0.410396, -0.945991, -0.360848, 42.558960, -33.433502, 30.491058
1648228412.318849, 0.202460, -9.034819, -1.943194, -0.218358, -1.107100, -0.434180, 42.442978, -33.446152, 30.134796
1648228412.352169, -0.675763, -10.432883, -2.122310, -0.002110, -1.202860, -0.409513, 42.382736, -33.775040, 30.804657
1648228412.384641, -1.074997, -11.112837, -2.546982, -0.005183, -0.956690, -0.453905, 42.635376, -33.948105, 30.806717
1648228412.418853, -1.138443, -10.060884, -2.954894, 0.009987, -0.481262, -0.539615, 43.047409, -34.185471, 31.135422
1648228412.452167, -0.951246, -10.059837, -2.209848, -0.051043, -0.218817, -0.568367, 43.717621, -34.341583, 31.600464
1648228412.485597, -0.833481, -9.556905, -1.566855, -0.050868, -0.389235, -0.698376, 44.477798, -34.530731, 31.323029
1648228412.518834, -0.823306, -8.698284, -1.520468, -0.020374, -0.607218, -0.723155, 45.370895, -34.853104, 31.111954
1648228412.551500, -1.155651, -8.480711, -1.896357, 0.052057, -0.624408, -0.643996, 46.090881, -35.045639, 31.444717
1648228412.585507, -1.405097, -8.697087, -2.354697, 0.186168, -0.348408, -0.585323, 46.953415, -35.425415, 31.847641
1648228412.618835, -1.712303, -9.755175, -3.126229, 0.279249, 0.007919, -0.626935, 47.775101, -35.320618, 31.941376
1648228412.652168, -0.704045, -10.398317, -3.075801, 0.352793, 0.383315, -0.558991, 48.917694, -35.810623, 32.308105
1648228412.685505, 0.158167, -9.572467, -2.517653, 0.321483, 0.493656, -0.436680, 49.897507, -35.910934, 32.781616
1648228412.718834, 0.610821, -8.780136, -1.431284, 0.261770, 0.272170, -0.315964, 50.656082, -36.309235, 33.098541
1648228412.752164, 0.665139, -9.447520, -1.152658, 0.153338, 0.015578, -0.206590, 51.243210, -36.209396, 33.078583
1648228412.785515, 0.359130, -9.664794, -1.174506, 0.217187, 0.018579, -0.095042, 51.506302, -36.297821, 33.449417
1648228412.818909, 0.467767, -10.349835, -0.963217, 0.220422, 0.006597, 0.104631, 51.490952, -36.386124, 33.867859
1648228412.852162, 0.893187, -12.957270, -0.808342, 0.241091, 0.164889, 0.291847, 51.586563, -36.501266, 33.825592
1648228412.885572, 1.814954, -13.116484, -0.550517, 0.184501, 0.769717, 0.700022, 51.263809, -36.765594, 34.130096
1648228412.918833, 2.736423, -11.520300, -0.408960, 0.064539, 0.915946, 0.917090, 50.177811, -36.860153, 34.367096
1648228412.952166, 2.314445, -9.588029, 0.126444, -0.084198, 0.674908, 1.110731, 49.229050, -36.636887, 34.505890
1648228412.985514, 1.368137, -8.537573, 0.543783, -0.318226, 0.622264, 1.318981, 47.928818, -36.516937, 34.034088
1648228413.018831, 0.653318, -8.461707, 0.506673, -0.362399, 0.631943, 1.517650, 45.865921, -36.279617, 33.234329
1648228413.052234, -1.261295, -10.547955, 0.257377, -0.411536, 0.494115, 1.513109, 44.151367, -35.798752, 32.742935
1648228413.085513, -0.918775, -10.129718, -0.446219, -0.353283, 0.722258, 1.471023, 42.566772, -35.450500, 32.341476
1648228413.118833, -0.590021, -9.582493, -0.533458, -0.260539, 1.268256, 1.595126, 40.881500, -34.855408, 31.488449
1648228413.152165, -0.461632, -8.856750, 0.120608, -0.207162, 1.255052, 1.537856, 39.422821, -34.284668, 31.042572
1648228413.185511, -0.414197, -8.732102, 0.635361, -0.224587, 0.505633, 1.285252, 38.234573, -34.050095, 30.111832
1648228413.218860, -0.793079, -8.667160, 0.585831, -0.305748, -0.682855, 1.168358, 36.792358, -33.701340, 30.198364
1648228413.252170, -2.026093, -8.185177, -0.111929, -0.220859, -0.837090, 0.898646, 34.859955, -33.196091, 30.519226
1648228413.285499, -2.898630, -7.867197, -0.557400, -0.172428, -0.541758, 0.592567, 33.745117, -33.033569, 30.563843
1648228413.318835, -3.154061, -7.764097, -0.415693, -0.322121, 0.199658, 0.377600, 33.066498, -32.963013, 30.437378
1648228413.352169, -3.135806, -7.987506, -0.324564, -0.354692, 0.572655, 0.250304, 33.210571, -33.164215, 29.446365
1648228413.385553, -3.180547, -10.487202, -0.221314, -0.278447, 0.520832, 0.193598, 33.095367, -33.303909, 29.342667
1648228413.418836, -3.827431, -12.580333, -0.343418, -0.145173, 0.021556, -0.139444, 33.167084, -33.554611, 28.887054
1648228413.451357, -3.601627, -13.316550, -0.773626, -0.049656, -0.323083, -0.294314, 33.599197, -34.121704, 29.009201
1648228413.485521, -4.030190, -14.697256, -2.232593, 0.323346, -0.813429, -0.457603, 33.541733, -35.168503, 29.903870
1648228413.518834, -3.942502, -12.510153, -2.928857, 0.571140, -0.691780, -0.874239, 34.081238, -36.380829, 31.234573
1648228413.552183, -1.599027, -8.701127, -2.751387, 0.558717, 0.384345, -0.673120, 35.125534, -37.466614, 32.317856
1648228413.585519, 1.325939, -6.829011, -1.991078, 0.313766, 0.520520, -0.270431, 35.965805, -38.664108, 33.176956
1648228413.618843, 1.304990, -7.153126, -2.320879, 0.193912, -0.000156, -0.212604, 36.252289, -39.221497, 33.513443
1648228413.652168, 0.579098, -7.691373, -1.485004, 0.000878, -0.727269, -0.279432, 36.424911, -39.511993, 33.965820
1648228413.685505, -1.048810, -8.263437, -0.791733, 0.067600, -1.207190, -0.555251, 36.455307, -40.246185, 35.300812
1648228413.718840, -1.398214, -8.423999, -2.097620, 0.017532, -0.548555, -0.839373, 37.284790, -41.104294, 35.845703
1648228413.752173, -1.377564, -8.395867, -1.522263, 0.062351, -0.607553, -0.960231, 38.708099, -42.043732, 36.418198
1648228413.785509, -1.078289, -8.606556, -1.138293, 0.000185, -0.644171, -0.880753, 40.290863, -42.976639, 37.196716
1648228413.818909, -1.449839, -8.981698, -0.811185, -0.009693, -0.672321, -0.847480, 41.286835, -43.729401, 37.407730
1648228413.852179, -1.678036, -9.148544, -1.007061, -0.067159, -0.851370, -0.773185, 42.562943, -44.344696, 37.745926
1648228413.885514, -1.830068, -9.203610, -1.139490, -0.061790, -0.827507, -0.722524, 43.803543, -45.154343, 38.151672
1648228413.917885, -2.072930, -8.261492, -1.406294, -0.059024, -0.686979, -0.697532, 44.908691, -45.817581, 38.586990
1648228413.952208, -1.853860, -8.878747, -1.415123, -0.011082, -0.470030, -0.491539, 45.969818, -46.522949, 38.854691
1648228413.985511, -0.746243, -10.519075, -0.980575, -0.015346, -0.640581, 0.007495, 46.112717, -46.957748, 39.103180
1648228414.018844, -2.107047, -11.704055, -0.735170, -0.012790, -1.146042, -0.026649, 45.964920, -47.647385, 39.116852
1648228414.052174, -3.717896, -12.617592, -1.029956, 0.079264, -1.035075, -0.095140, 45.919403, -48.056870, 39.795502
1648228414.085514, -3.916615, -14.851233, -0.879420, 0.289199, 0.337057, 0.112809, 45.990387, -48.591690, 40.777588
1648228414.118861, -1.364845, -12.485313, -0.525527, 0.244463, 1.059056, 0.228634, 45.758850, -49.036301, 41.219070
1648228414.152177, -0.360028, -9.945813, -0.793678, 0.217342, 1.278668, 0.285667, 45.242340, -49.259766, 41.219528
1648228414.185508, -0.324414, -9.352350, -0.433500, 0.054036, 1.370817, 0.452122, 44.577835, -49.537201, 41.587479
1648228414.218852, 0.065990, -9.585037, -0.599897, -0.012980, 1.525590, 0.551626, 43.434357, -49.805054, 41.465958
1648228414.252233, -0.390554, -9.548076, -0.468066, -0.090581, 1.707458, 0.623853, 42.434616, -49.875748, 40.777985
1648228414.285517, -0.192135, -9.267955, -0.151284, -0.234094, 1.832353, 0.849788, 41.369507, -49.849426, 39.820908
1648228414.318851, 0.089483, -8.865429, 0.111330, -0.364996, 1.672468, 0.998965, 39.903061, -49.422119, 38.554932
1648228414.352187, 0.249596, -8.093150, 0.082899, -0.447198, 1.221585, 1.122398, 37.612762, -48.939102, 36.971237
1648228414.385513, -0.025139, -7.710227, 0.077662, -0.474821, 0.469306, 1.191834, 35.428513, -48.351395, 35.807877
1648228414.418847, -0.660500, -7.635408, 0.003142, -0.456928, 0.083614, 1.157868, 33.585297, -47.794525, 35.061523
1648228414.452178, -1.621473, -7.568820, -0.190339, -0.431815, -0.027224, 1.100704, 30.265732, -46.961395, 34.608612
1648228414.485515, -2.125901, -7.564331, -0.095618, -0.364806, -0.026285, 0.940359, 28.641464, -46.198990, 34.176071
1648228414.518900, -2.123208, -7.882759, -0.013617, -0.327980, 0.085785, 0.721825, 26.941010, -45.387909, 33.712524
1648228414.552177, -2.327164, -9.616161, -0.008380, -0.326847, 0.090091, 0.735557, 24.904816, -45.079376, 33.112259
1648228414.585590, -3.302652, -11.911752, -0.316035, -0.222360, -0.359925, 0.546291, 23.565277, -44.348495, 32.941193
1648228414.618397, -3.332729, -12.217761, -1.018284, -0.117712, -0.893406, -0.139472, 22.649780, -44.092407, 33.851593
1648228414.651822, -3.152565, -11.357793, -1.793706, -0.049562, -0.899535, -0.504089, 22.419281, -44.530380, 34.951187
1648228414.685526, -4.808604, -13.940538, -2.389264, 0.149923, -1.122768, -0.819783, 23.247833, -45.465454, 37.170212
1648228414.718862, -4.679018, -12.395530, -3.299360, 0.460376, -0.482356, -1.176501, 24.611252, -46.203293, 38.687317
1648228414.752237, -2.642600, -9.816376, -3.447800, 0.583231, 0.315154, -0.973801, 26.286224, -47.023300, 39.731018
1648228414.785511, -0.503381, -9.682002, -1.810914, 0.264352, 0.017849, -0.748109, 27.890488, -47.740952, 40.592133
1648228414.818523, -0.959626, -9.397990, -1.849970, 0.061220, -0.857446, -0.829339, 28.798660, -47.959915, 41.351471
1648228414.852219, -1.920000, -8.291120, -1.413327, -0.133247, -0.736001, -0.995583, 30.111542, -48.334656, 42.262177
1648228414.885532, -1.793556, -6.906673, -1.687314, -0.189773, -0.118826, -1.076512, 32.061066, -49.019089, 42.636551
1648228414.918881, -1.063325, -6.524948, -1.725920, -0.219341, 0.169358, -1.134586, 33.735718, -49.606537, 42.218262
1648228414.952180, -0.509815, -6.717980, -1.411382, -0.204170, -0.009843, -0.996465, 35.528976, -49.943359, 41.666779
1648228414.985519, -0.777367, -8.116942, -1.293467, -0.164352, -0.272194, -0.790645, 36.947693, -50.503952, 41.890167
1648228415.018904, -1.201291, -8.385093, -1.580023, -0.101099, -0.394504, -0.685852, 37.847763, -50.832916, 42.034546
1648228415.052182, -1.270274, -7.866000, -1.957260, -0.040550, -0.217892, -0.572996, 38.654388, -51.005508, 42.442871
1648228415.085508, -0.979677, -7.838766, -1.965191, -0.030456, -0.021449, -0.444652, 39.276352, -51.166229, 42.414230
1648228415.118862, -0.580893, -9.041104, -1.376816, -0.012154, -0.029674, -0.211403, 39.368484, -51.605759, 42.939148
1648228415.152185, -0.861613, -10.857705, -1.331775, 0.043430, -0.532702, -0.100493, 39.333282, -51.430267, 43.188538
1648228415.185514, -1.240196, -11.902474, -1.867477, 0.122093, -0.640335, -0.117382, 39.096008, -51.478928, 43.688446
1648228415.218888, -0.759710, -11.064354, -2.186056, 0.196356, -0.514964, -0.059684, 39.098175, -51.598557, 44.489807
1648228415.252188, -0.714071, -13.062764, -1.516128, 0.224204, -0.277578, 0.243286, 38.425522, -51.361603, 45.632965
1648228415.285573, -0.301071, -14.531308, -1.331326, 0.262665, -0.153884, 0.585149, 37.145996, -50.920624, 46.162109
1648228415.318859, -0.824354, -11.228507, -1.079935, 0.235722, 0.136379, 0.475145, 35.594574, -50.197083, 47.259750
1648228415.352224, -0.353444, -9.592070, -0.862212, 0.149201, 0.921717, 0.400762, 34.842529, -49.598999, 47.069809
1648228415.385519, 0.644489, -10.199000, -0.636409, 0.020977, 1.379179, 0.763289, 33.343567, -48.925751, 46.379089
1648228415.418849, 0.851139, -10.563367, -0.874333, 0.100402, 1.182861, 1.008961, 31.667252, -48.050949, 45.811203
1648228415.451499, 0.149787, -10.037242, -0.771382, 0.124107, 0.701683, 1.054074, 29.103027, -46.605652, 45.257111
1648228415.485515, -0.489614, -8.540117, -0.913837, 0.072097, 0.489888, 0.929453, 27.459518, -45.297562, 44.997910
1648228415.518851, -1.062876, -7.007529, -0.389507, -0.026023, 0.711080, 0.844234, 25.923569, -44.346237, 44.659927
1648228415.552184, -1.298106, -6.653636, -0.062848, -0.179730, 0.909884, 0.731559, 24.048141, -42.906921, 43.830917
1648228415.585264, -1.344943, -6.993762, -0.169839, -0.290501, 0.751021, 0.648572, 22.874969, -41.997528, 42.689072
1648228415.618932, -1.528398, -7.721749, -0.247950, -0.277331, 0.340294, 0.615426, 21.912949, -41.033478, 42.067886
1648228415.652227, -2.099416, -8.501511, -0.224307, -0.272456, 0.024993, 0.504808, 20.719101, -39.903534, 41.670837
1648228415.685537, -2.282871, -8.470087, -0.343418, -0.342750, 0.086554, 0.381473, 19.708527, -39.062332, 41.311813
1648228415.718871, -2.267309, -8.814852, -0.611719, -0.337804, 0.115562, 0.397152, 19.256577, -38.241119, 40.513306
1648228415.752208, -2.687342, -10.234913, -1.293916, -0.234027, -0.048828, 0.245747, 18.645416, -37.658173, 40.586182
1648228415.785516, -3.176956, -11.817330, -1.204134, -0.126210, -0.164176, -0.164552, 18.553070, -37.023697, 40.968674
1648228415.818879, -3.383157, -11.675025, -1.869273, -0.048497, -0.150555, -0.586277, 18.908173, -37.074585, 40.918396
1648228415.852189, -1.412280, -13.928567, -2.269853, 0.125688, -0.221257, -0.420390, 19.483582, -37.178726, 41.338058
1648228415.885520, -0.819116, -13.588591, -2.745102, 0.280707, -0.577140, -0.513474, 20.449081, -37.307251, 42.323868
1648228415.918875, -0.491709, -11.657069, -3.377470, 0.435324, -0.727941, -0.408233, 21.288605, -37.491501, 43.751602
1648228415.952190, 0.104447, -10.353276, -3.115006, 0.321666, -0.247730, -0.431560, 21.796997, -37.731293, 44.620895
1648228415.985523, 0.280122, -9.169792, -2.447323, 0.167623, -0.073312, -0.440547, 22.463409, -38.301712, 45.092819
1648228416.018859, 0.326509, -7.668179, -1.301847, 0.005836, -0.626755, -0.575790, 23.367676, -38.542984, 45.710251
1648228416.052251, 0.171335, -6.738481, -1.187674, -0.140592, -0.854787, -0.653967, 24.278229, -38.879059, 45.978363
1648228416.085523, -1.143531, -6.315904, -1.526453, -0.234894, -0.937114, -0.768083, 25.605530, -39.517334, 46.973404
1648228416.118857, -1.687014, -6.925528, -1.398214, -0.240885, -1.042404, -0.856313, 26.946655, -40.036240, 47.637161
1648228416.152203, -1.985691, -8.083423, -1.294515, -0.168905, -1.089846, -0.832081, 28.303452, -40.851700, 47.993713
1648228416.185542, -2.636764, -8.905981, -1.401805, -0.103160, -1.186502, -0.910659, 29.739075, -41.491714, 49.065094
1648228416.218863, -2.762460, -8.845228, -1.757793, -0.054453, -1.020023, -0.904117, 31.428146, -42.147095, 49.915817
1648228416.252208, -3.152715, -8.388385, -1.971924, -0.069365, -0.588593, -0.853148, 32.818420, -42.606873, 50.340561
1648228416.285529, -2.771139, -8.781333, -2.019210, -0.003032, -0.191473, -0.625055, 34.238663, -42.989517, 50.586258
1648228416.318858, -2.511518, -9.808595, -1.777545, 0.026736, -0.115939, -0.436726, 34.926743, -43.122528, 50.955963
1648228416.352232, -2.136376, -10.492738, -1.833809, 0.145480, -0.075771, -0.269081, 35.581497, -43.292679, 51.205734
1648228416.385531, -1.545607, -11.701810, -1.870769, 0.215902, 0.015831, -0.082736, 35.916718, -43.230148, 51.402847
1648228416.418859, -1.232864, -13.227964, -2.050484, 0.307948, -0.029167, 0.071109, 36.092865, -43.331818, 52.345901
1648228416.452224, -0.733673, -15.079730, -1.771859, 0.409263, 0.225317, 0.342390, 35.621704, -42.838654, 52.702988
1648228416.485526, -0.469413, -12.048072, -1.012598, 0.283067, 0.579005, 0.377708, 35.133713, -42.608322, 52.727814
1648228416.518867, -0.528969, -9.414599, -1.211017, 0.174175, 0.844855, 0.223442, 34.631912, -42.572983, 52.356201
1648228416.552194, -0.088137, -9.257181, -0.849343, 0.020106, 1.650042, 0.627592, 33.636292, -42.400024, 51.101624
1648228416.585545, 0.381875, -9.748441, -0.248997, -0.077663, 1.954480, 1.026189, 31.986191, -41.770630, 50.010529
1648228416.618891, 0.303016, -10.324396, 0.073023, -0.194362, 1.627130, 1.200588, 30.158752, -40.965103, 48.503998
1648228416.652195, 0.255282, -9.209596, -0.297031, -0.298750, 0.785242, 1.187637, 27.999527, -40.224747, 46.959854
1648228416.685582, 0.080954, -7.815422, -0.515502, -0.325681, 0.558635, 1.190211, 26.330383, -38.988281, 45.773392
1648228416.718863, -0.418536, -6.901885, -0.324414, -0.359169, 0.497549, 1.286697, 24.650116, -38.309845, 44.638397
1648228416.752195, -0.890942, -6.774693, -0.115520, -0.388090, 0.365452, 1.305778, 22.260956, -36.682953, 43.558441
1648228416.785539, -1.206528, -6.996605, -0.201263, -0.352568, 0.063325, 1.227240, 20.997208, -35.386581, 42.871262
1648228416.818870, -2.297236, -7.786542, -0.620398, -0.253805, -0.313165, 1.037241, 19.644211, -34.382782, 42.668625
1648228416.852263, -3.211223, -8.084471, -0.976984, -0.134726, -0.478720, 0.633826, 18.764481, -33.503036, 42.916214
1648228416.885526, -3.492542, -8.699032, -1.129614, -0.006733, -0.040436, 0.302025, 18.132217, -32.921036, 43.188126
1648228416.918947, -3.569904, -9.856629, -1.125724, 0.014456, 0.254853, 0.201867, 18.065170, -32.896088, 42.898483
1648228416.952195, -4.383634, -11.786056, -1.176002, 0.045225, 0.197079, -0.257215, 18.188293, -32.785782, 42.679413
1648228416.985534, -3.963302, -11.911303, -1.230620, 0.074980, -0.053608, -1.016926, 19.469940, -33.963425, 42.851013
1648228417.018887, -2.998887, -13.852701, -1.553238, 0.351505, -0.554392, -1.109418, 20.852158, -35.316605, 43.475632
1648228417.052214, -2.767398, -13.730747, -2.684349, 0.548158, -0.696464, -1.360157, 22.682053, -36.578888, 44.435455
1648228417.085195, 0.129287, -9.179519, -3.098546, 0.623901, 0.171154, -0.915454, 24.711823, -38.150574, 45.580124
1648228417.118871, 2.415600, -8.605359, -1.269974, 0.338756, 0.133078, -0.208425, 25.498123, -38.277313, 46.085449
1648228417.152196, -0.149638, -11.087398, -0.906355, 0.170253, -0.798328, -0.360271, 25.916916, -38.553238, 46.657425
1648228417.185618, -0.769586, -10.586262, -1.547103, 0.263093, -1.463985, -1.031366, 26.939392, -39.260101, 48.189682
1648228417.218937, -1.166126, -9.226655, -1.414674, 0.130682, -0.899602, -1.239315, 29.345062, -40.406891, 49.577972
1648228417.252200, -1.279551, -7.117513, -1.116745, -0.064278, -0.424111, -1.265120, 31.281723, -41.497787, 50.234634
1648228417.285603, -0.990900, -6.673388, -0.265008, -0.157379, -0.328248, -1.130262, 33.344833, -42.282410, 49.707535
1648228417.318877, -0.880767, -6.757485, -0.073771, -0.213880, -0.716404, -0.935202, 35.208481, -43.254532, 50.053696
1648228417.352204, -1.726968, -7.857321, -0.330998, -0.286622, -0.919764, -0.788309, 36.875992, -43.708923, 49.726685
1648228417.385547, -2.002301, -8.112902, -1.156699, -0.249154, -0.681873, -0.718834, 38.220413, -44.173233, 49.687180
1648228417.418870, -1.183783, -8.026561, -1.587805, -0.135246, -0.298223, -0.526237, 39.472153, -44.563736, 49.688293
1648228417.452295, -1.069310, -8.930821, -1.445350, -0.131138, -0.153545, -0.355591, 40.123779, -44.580521, 49.974380
1648228417.485539, -0.356886, -10.454282, -1.466000, -0.074262, -0.178284, -0.015514, 40.399521, -44.570099, 49.514481
1648228417.518872, -0.348506, -12.015301, -1.324143, 0.040742, -0.398189, 0.167279, 40.322647, -44.524185, 50.135162
1648228417.551641, -0.576254, -11.823615, -1.735347, 0.167252, -0.633663, 0.167864, 40.141968, -44.244934, 50.043716
1648228417.584790, -0.827047, -13.934852, -1.164330, 0.274281, -0.693233, 0.365453, 39.888657, -44.039001, 50.952026
1648228417.618869, -1.277157, -14.555250, -0.616806, 0.215456, 0.044844, 0.536451, 39.387329, -43.771606, 51.554840
1648228417.652217, -0.683993, -11.772439, -1.054945, 0.200524, 0.779777, 0.564314, 38.003250, -43.482147, 51.521866
1648228417.685559, 0.196325, -10.143335, -0.551265, 0.079658, 1.290209, 0.613872, 37.272949, -43.045486, 51.062897
1648228417.718869, 0.361973, -10.736049, 0.163554, -0.090241, 1.522771, 0.839447, 35.828278, -42.563492, 50.138626
1648228417.752220, -0.001047, -11.011382, 0.093823, -0.108833, 1.500917, 1.028641, 33.606293, -41.460526, 48.569290
1648228417.785537, -0.194230, -9.738415, -0.407164, -0.143417, 1.380699, 1.011489, 32.335236, -40.867203, 47.664185
1648228417.818908, 0.019453, -8.287230, -0.533757, -0.177784, 1.317488, 0.974904, 31.045242, -40.186890, 46.553833
1648228417.852267, 0.091129, -7.050026, -0.242263, -0.323453, 1.229507, 1.026671, 29.227661, -38.973648, 44.473038
1648228417.885545, -0.368258, -6.263531, 0.282067, -0.445836, 0.951375, 1.014188, 28.130722, -38.048584, 43.187881
1648228417.917946, -0.833781, -6.508039, 0.303465, -0.496250, 0.502138, 0.935155, 27.089966, -37.148636, 42.018784
1648228417.952204, -1.548899, -6.887969, -0.106542, -0.501903, -0.035604, 0.728811, 26.184250, -36.367859, 40.854050
1648228417.985539, -2.105551, -7.143849, -0.566678, -0.405427, -0.066475, 0.589979, 24.880951, -35.289139, 40.413712
1648228418.018883, -2.579004, -8.142381, -0.636708, -0.253526, 0.297245, 0.576402, 24.393295, -34.646011, 40.216888
1648228418.052205, -3.019088, -9.287108, 0.143802, -0.242252, 0.657623, 0.305597, 23.967728, -34.038269, 39.581451
1648228418.085551, -2.479046, -10.324097, -0.103250, -0.207541, 0.533656, 0.103629, 23.889282, -33.406479, 38.506256
1648228418.117999, -2.253393, -12.690616, -1.995268, 0.180507, -0.233739, 0.000044, 24.065002, -33.468445, 38.711166
1648228418.152253, -2.808847, -13.101520, -1.968034, 0.345851, -0.977204, -0.713857, 24.717728, -33.987091, 39.773041
1648228418.185540, -2.657115, -14.507815, -2.465130, 0.542119, -1.390002, -0.960261, 25.924896, -34.946716, 42.437805
1648228418.218879, -3.180547, -12.027272, -4.339191, 0.657175, -0.691503, -1.155596, 27.547531, -36.000778, 43.992188
1648228418.252219, 0.382025, -9.099014, -3.617489, 0.629462, 0.604238, -0.710609, 28.986267, -37.098587, 44.568298
1648228418.285546, 1.611597, -10.387543, -1.473631, 0.254649, 0.502133, -0.128406, 29.324524, -36.996643, 44.491440
1648228418.318875, 1.306785, -10.475231, -1.211316, 0.207954, -0.885863, -0.358528, 30.002228, -37.300919, 45.267609
1648228418.352245, 0.549769, -9.235633, -1.035941, 0.189710, -1.561694, -0.530547, 30.615631, -37.845322, 46.063538
1648228418.385541, -1.026364, -7.663091, -1.143082, -0.056317, -1.236314, -0.863334, 31.911316, -38.484085, 47.426102
1648228418.418888, -1.612644, -6.267571, -1.331475, -0.160053, -0.750894, -0.984276, 33.402969, -39.060699, 47.978699
1648228418.452204, -1.409586, -6.286126, -0.849792, -0.193564, -0.485777, -0.943782, 35.116653, -39.914505, 48.267715
1648228418.485542, -1.607407, -7.364265, -0.716614, -0.205349, -0.704030, -0.787273, 36.158508, -40.446259, 48.203552
1648228418.518875, -2.338387, -8.249371, -0.802207, -0.109349, -0.919288, -0.729843, 37.714355, -40.893631, 48.834274
1648228418.552251, -3.308637, -8.096292, -1.004817, -0.072494, -0.637464, -0.731937, 38.880783, -41.289383, 48.927216
1648228418.585558, -3.202544, -7.855076, -1.805378, 0.011256, 0.163820, -0.634375, 39.920914, -41.937958, 48.962204
1648228418.618887, -1.947683, -9.219173, -2.287809, 0.166430, 0.496456, -0.301706, 40.604904, -42.092834, 49.306442
1648228418.652210, -0.152930, -11.530625, -1.422305, 0.206570, 0.357088, -0.071596, 40.627396, -42.407166, 49.724838
1648228418.685550, -0.099210, -12.835315, -1.337760, 0.277495, -0.192086, 0.130506, 40.413757, -42.557144, 49.816498
1648228418.718908, -0.732027, -12.366800, -2.012626, 0.293325, -0.463259, -0.031046, 40.384857, -42.500412, 50.156891
1648228418.752208, 0.060454, -12.754212, -1.007959, 0.256634, -0.189129, 0.129608, 40.008377, -42.728912, 51.551743
1648228418.785542, -0.128239, -12.040590, -0.484377, 0.112133, 0.177710, 0.244688, 39.605530, -42.817642, 51.444458
1648228418.818891, -0.051026, -10.518626, 0.027384, -0.015403, 0.506404, 0.367915, 38.868866, -42.587524, 51.011246
1648228418.852230, -0.114323, -11.024850, 0.259771, -0.199539, 0.871584, 0.576703, 37.342682, -42.213364, 50.392227
1648228418.885614, 0.323068, -11.260529, -0.476596, -0.208444, 1.229507, 0.860352, 35.772308, -42.075394, 49.385559
1648228418.918881, 0.672022, -10.840646, -0.695964, -0.209021, 1.095790, 1.099467, 33.671783, -41.686264, 48.485626
1648228418.952238, 0.938228, -9.645640, -0.858770, -0.253723, 0.774646, 1.164310, 31.332214, -40.590393, 47.005066
1648228418.985543, 0.368557, -7.746290, -0.749535, -0.253410, 0.404682, 1.142889, 29.462173, -39.833588, 45.778763
1648228419.018878, -0.419434, -6.796540, -0.304961, -0.358913, 0.100669, 0.960756, 27.333725, -39.133041, 45.591385
1648228419.052207, -1.008258, -6.475867, -0.095319, -0.431688, -0.021236, 0.863352, 25.932770, -38.284958, 44.524765
1648228419.085562, -1.901744, -6.844125, -0.424821, -0.442192, -0.038868, 0.827643, 24.233948, -37.158630, 43.610764
1648228419.118881, -2.783110, -7.012916, -0.731878, -0.382968, -0.061730, 0.672038, 22.829346, -36.299606, 43.181442
1648228419.152219, -3.281553, -7.471555, -1.080084, -0.291273, 0.040506, 0.335697, 21.862991, -35.828934, 42.964249
1648228419.185565, -6.478560, -11.518654, -0.760758, -0.220828, 0.189573, -0.374755, 21.738739, -35.445404, 42.453354
1648228419.218901, -7.526771, -11.972056, -1.844882, -0.213490, 1.297296, -1.290299, 22.978622, -36.395660, 40.971832
1648228419.252223, -2.148497, -11.681011, -0.773477, -0.211501, 2.828331, -0.153996, 24.377029, -36.751984, 38.067398
1648228419.285546, 2.000056, -12.328493, -1.161337, 0.019070, 2.071467, 0.342944, 24.688278, -36.085785, 35.016968
1648228419.318932, 2.227954, -11.922376, -1.711854, 0.306188, 0.201405, 0.285806, 24.307693, -35.870468, 34.681686
1648228419.352236, 0.912939, -10.551396, -1.505654, 0.429160, -1.720597, 0.049083, 23.844147, -35.460022, 36.235413
1648228419.385553, 1.365593, -8.819491, -2.664896, 0.572645, -1.776618, 0.006288, 22.851181, -35.290604, 39.240936
1648228419.418893, -1.469142, -13.266720, -3.130119, 0.653573, -0.917320, -0.407108, 23.042435, -35.421524, 41.014252
1648228419.452213, -1.974468, -11.766903, -2.935291, 0.439141, 0.610380, -1.020988, 24.408661, -36.264191, 41.375259
1648228419.485560, 0.016310, -9.022250, -1.617433, 0.325778, 0.907585, -0.841004, 25.842422, -37.018265, 41.020767
1648228419.518897, 0.750133, -6.344485, -0.168642, 0.322593, -0.052233, -0.827358, 27.017456, -37.475128, 41.198807
1648228419.552235, 0.955586, -5.442769, -0.118663, 0.087589, -1.219660, -0.680513, 27.963501, -38.209549, 42.175323
1648228419.585594, -0.568324, -5.734412, -1.064073, -0.068142, -1.578642, -0.627337, 28.591293, -38.551270, 42.849426
1648228419.618882, -2.845060, -7.464223, -2.017265, -0.044978, -1.290627, -1.050544, 30.191238, -38.803864, 44.401474
1648228419.652260, -2.440589, -8.351724, -2.214786, 0.017499, -0.425162, -1.049450, 31.613922, -39.566422, 44.427444
1648228419.685550, -2.448370, -9.099014, -1.779191, 0.012139, 0.169932, -1.007169, 32.933014, -39.955490, 44.611603
1648228419.718888, -1.159093, -8.984391, -1.884985, 0.013574, 0.242536, -1.000635, 35.154633, -40.578125, 44.280762
1648228419.752230, -0.649726, -10.039935, -1.637185, 0.036931, 0.137052, -0.732919, 36.440247, -40.883743, 44.216248
1648228419.785570, -0.575656, -10.668712, -1.661127, 0.066847, 0.104386, -0.340717, 37.226791, -40.999069, 44.373459
1648228419.818947, 0.654365, -10.693253, -1.673397, 0.180097, 0.057006, 0.005717, 37.362991, -40.826035, 44.450272
1648228419.852215, 1.740884, -12.640188, -1.265336, 0.236359, -0.490059, 0.246916, 37.244827, -40.333588, 44.748611
1648228419.885554, 0.597802, -15.066711, -0.493804, 0.081639, -0.772919, 0.332472, 37.051956, -40.204803, 45.629059
1648228419.918956, 0.304961, -14.013262, -0.609025, 0.062309, -0.047867, 0.373531, 36.565582, -39.722580, 45.733871
1648228419.951885, 0.341174, -11.835137, -0.950797, -0.021911, 0.724323, 0.369624, 36.503174, -39.383804, 45.501801
1648228419.985552, 0.896030, -10.797550, -0.533009, -0.190150, 1.589756, 0.665116, 36.113251, -39.236908, 44.172684
1648228420.018176, 2.071134, -9.718214, -0.128389, -0.239679, 1.661238, 1.135076, 35.053680, -38.689224, 43.065933
1648228420.052226, 2.294543, -9.457695, -0.068684, -0.275485, 1.032941, 1.557224, 33.139175, -37.461594, 41.683136
1648228420.085573, 1.012747, -8.728361, 0.289698, -0.359165, 0.216560, 1.561497, 31.348038, -36.599808, 41.238693
1648228420.118913, 0.023343, -7.592163, -0.157718, -0.388777, -0.521713, 1.246649, 29.803467, -35.504333, 40.840164
1648228420.152287, -0.674566, -6.390723, -0.767042, -0.353928, -0.506953, 1.190924, 28.375351, -34.616791, 41.069290
1648228420.185563, -1.236605, -6.103867, -0.816872, -0.307246, -0.187832, 1.160614, 26.532974, -33.510315, 40.837418
1648228420.218917, -2.248305, -6.798036, -0.638953, -0.309361, 0.123542, 0.974880, 25.536697, -32.590881, 40.416031
1648228420.252233, -3.556587, -7.681946, -0.475997, -0.354627, 0.416453, 0.436604, 25.291397, -31.914078, 39.901962
1648228420.285561, -2.507777, -7.690325, -0.802506, -0.253424, 0.862326, 0.202504, 25.387985, -31.804138, 38.674484
1648228420.318875, -1.686117, -8.614338, -0.200065, -0.180850, 0.707264, 0.349388, 25.353912, -31.533157, 37.553650
1648228420.352221, -1.716044, -9.963321, -0.310049, -0.182907, 0.092475, 0.300275, 25.439468, -31.661758, 37.158890
1648228420.385581, -2.937985, -12.395081, -0.903811, 0.020288, -0.782561, 0.055750, 25.623215, -31.527283, 38.292740
1648228420.418918, -4.602254, -12.970587, -1.735497, 0.319926, -1.193976, -0.724097, 25.971390, -32.139893, 39.578308
1648228420.452240, -3.591602, -14.491354, -1.920299, 0.606161, -0.733640, -0.620308, 26.707611, -33.110443, 41.034286
1648228420.485566, -3.708618, -13.832051, -2.246958, 0.847294, -0.449535, -0.690494, 28.039078, -34.132797, 42.687119
1648228420.518964, -2.019808, -11.112986, -3.088071, 0.868035, -0.054447, -0.529113, 28.873459, -34.943848, 44.007721
1648228420.552245, -0.233734, -9.364920, -2.406771, 0.306314, 0.528396, -0.128638, 29.319412, -35.393692, 44.713928
1648228420.585577, 1.551443, -8.607305, -1.590648, 0.063528, 0.594400, -0.272936, 29.795258, -35.754730, 44.267853
1648228420.618889, 2.798223, -8.818593, -0.767192, -0.007734, -0.064218, -0.501895, 30.651459, -36.453461, 44.265930
1648228420.652222, 2.360533, -8.973019, -0.621894, -0.158762, -1.087912, -0.733778, 31.722763, -37.072418, 44.996216
1648228420.685560, -0.183456, -7.928100, -0.933290, -0.303753, -1.214245, -1.104675, 32.989120, -37.809052, 45.303909
1648228420.718960, -1.049708, -6.920590, -0.854880, -0.248741, -1.390610, -1.174473, 35.323380, -39.026932, 46.385132
1648228420.752225, -1.874810, -7.226898, -0.393697, -0.294348, -1.423509, -1.034811, 36.945541, -39.746887, 46.549454
1648228420.785560, -2.462436, -7.731176, -0.439037, -0.255067, -1.283936, -1.023115, 38.584274, -40.341156, 46.687546
1648228420.818888, -3.156007, -7.659949, -1.207725, -0.088961, -0.850512, -0.725513, 40.510757, -40.966461, 47.241806
1648228420.852233, -3.374328, -7.102699, -0.925209, -0.016289, -0.515269, -0.308024, 41.362839, -41.306732, 47.586243
1648228420.885574, -2.462885, -7.675212, -1.241693, -0.006544, -0.262572, -0.268674, 41.890106, -41.583984, 47.610352
1648228420.918908, -1.268777, -10.050110, -1.660379, -0.010215, -0.237447, -0.147852, 42.520599, -41.712997, 47.869263
1648228420.952245, -1.441010, -11.455806, -1.575684, 0.067845, -0.217654, -0.204987, 43.148102, -41.858139, 48.177017
1648228420.985575, -1.071854, -12.388497, -1.529296, 0.207115, -0.319360, -0.242861, 43.501755, -42.101700, 48.610168
1648228421.018900, -1.047314, -11.748048, -1.587655, 0.286041, -0.528972, -0.330862, 44.353622, -42.381897, 48.962494
1648228421.052224, -1.480814, -14.034212, -0.541987, 0.299425, -0.473069, -0.150552, 44.990295, -42.825638, 50.104126
1648228421.085618, -0.834230, -13.530980, -0.580594, 0.287383, 0.252711, 0.199124, 44.982605, -42.924911, 50.276382
1648228421.118892, -0.049081, -11.934796, -0.714220, 0.164454, 1.035389, 0.392816, 44.507645, -43.109741, 50.780258
1648228421.152253, 0.291344, -11.293898, -0.949750, 0.035748, 1.521986, 0.447434, 43.671005, -43.080215, 50.319534
1648228421.185561, 1.168520, -11.201272, -0.720804, -0.124416, 1.852472, 0.683248, 42.416794, -43.097000, 49.397171
1648228421.218917, 1.051653, -11.226711, -0.397886, -0.181718, 1.681655, 0.850328, 41.240387, -42.836258, 48.929138
1648228421.252225, 0.502782, -9.335591, 0.040701, -0.304923, 1.343181, 0.879728, 39.822815, -43.005432, 47.915680
1648228421.285563, 0.617255, -7.731625, -0.110881, -0.479322, 0.962532, 0.977396, 37.805603, -42.750626, 46.175827
1648228421.318915, 0.262913, -6.595876, -0.097115, -0.632575, 0.747470, 1.037635, 36.311966, -41.993210, 44.475830
1648228421.352302, -0.171036, -5.942409, -0.010325, -0.711845, 0.531676, 1.144998, 34.801529, -41.385925, 43.575165
1648228421.385577, -0.569670, -6.283283, -0.019752, -0.701850, 0.195059, 1.263079, 32.516922, -40.511078, 41.590897
1648228421.418916, -1.360355, -6.943334, -0.428861, -0.624577, -0.173101, 1.157833, 30.525421, -39.740143, 40.749664
1648228421.452237, -2.448520, -7.173477, -1.179893, -0.448140, -0.285321, 0.788771, 29.096085, -38.774597, 40.439651
1648228421.485566, -1.838897, -7.987655, -0.999430, -0.273479, 0.139932, 0.743366, 27.834335, -38.360016, 39.925583
1648228421.518922, -2.101511, -10.127323, -0.730680, -0.259029, 0.436264, 0.790134, 26.707962, -37.735779, 39.237305
1648228421.552243, -2.388815, -11.638065, -1.204134, -0.128140, -0.045018, 0.389153, 26.081024, -37.160706, 39.208115
1648228421.585563, -1.341501, -11.900978, -1.107767, -0.003862, -0.628159, -0.057805, 25.773102, -37.163437, 39.482162
1648228421.618916, -0.246902, -13.117981, -0.935834, 0.012564, -1.505734, 0.122462, 25.604370, -37.190704, 40.642899
1648228421.652233, -2.906561, -14.993987, -2.157026, 0.330187, -2.855947, -0.264164, 25.321732, -37.147659, 42.823349
1648228421.685577, -5.545719, -11.106103, -4.456208, 0.470281, -2.431571, -1.078061, 26.353302, -37.673157, 45.969711
1648228421.718912, -3.540875, -9.701455, -4.183418, 0.446959, 0.598321, -0.417143, 27.792664, -38.568222, 47.311737
1648228421.752241, -3.363704, -10.932823, -2.471714, 0.348682, 1.050388, -0.474204, 28.094803, -38.835342, 47.136673
1648228421.785587, -1.752107, -9.950302, -0.843806, 0.211252, 0.173994, -1.065011, 29.371506, -39.542892, 47.175888
1648228421.818900, -1.024419, -7.428011, -0.588225, -0.084710, -0.348411, -1.224909, 31.776428, -40.677704, 47.162415
1648228421.852283, -1.127519, -5.943755, -1.464503, -0.096659, -0.286912, -1.186496, 33.430832, -41.366913, 47.272705
1648228421.885565, -0.798466, -5.759252, -1.460164, -0.097553, -0.283827, -1.063100, 35.150894, -42.228546, 47.443909
1648228421.918899, -0.828693, -6.050297, -1.294665, -0.175853, -0.298889, -0.906009, 36.887192, -42.906204, 47.052246
1648228421.952234, -1.159243, -6.920889, -1.065569, -0.183712, -0.423582, -0.670001, 38.174500, -43.492004, 47.065796
1648228421.985565, -1.837699, -8.079383, -1.382053, -0.136138, -0.638727, -0.661309, 39.080841, -43.710022, 46.972702
1648228422.018951, -1.895160, -8.079682, -1.727716, -0.103993, -0.634327, -0.615600, 39.966537, -43.997223, 47.155975
1648228422.052275, -2.299182, -9.193435, -1.597381, -0.052272, -0.406708, -0.420281, 41.200653, -44.291321, 47.255920
1648228422.085569, -2.530671, -11.030835, -1.568052, 0.014955, -0.380752, -0.351074, 41.671860, -44.408813, 47.737457
1648228422.118911, -2.352902, -11.966818, -1.682824, 0.150517, -0.399426, -0.280063, 42.182861, -44.637756, 47.843765
1648228422.152238, -2.062305, -11.996147, -1.892317, 0.281672, -0.470038, -0.153957, 42.575882, -44.631241, 48.880920
1648228422.185593, -1.607706, -12.548759, -1.549348, 0.382484, -0.419619, 0.027145, 42.607315, -44.650162, 49.048325
1648228422.218920, -1.209521, -13.503148, -0.878971, 0.386152, -0.179384, 0.204187, 42.426468, -44.607071, 49.900009
1648228422.252257, -0.862362, -11.700613, -0.374842, 0.251428, 0.453200, 0.338480, 41.757736, -44.611618, 50.442459
1648228422.285570, -0.316035, -11.186907, -0.121655, 0.097924, 1.085303, 0.450637, 40.791122, -44.413239, 49.782974
1648228422.318901, 0.205602, -11.479299, -0.318130, -0.035630, 1.502969, 0.619708, 39.722168, -44.335693, 49.348236
1648228422.352243, 0.681001, -11.550078, -0.665438, -0.001935, 1.446070, 0.876590, 38.587296, -43.928375, 48.245880
1648228422.385567, 0.849493, -10.405200, -0.860715, -0.018876, 0.997035, 0.918083, 36.428146, -43.435120, 47.281662
1648228422.418973, 0.375890, -7.650821, -0.750732, -0.056255, 0.564749, 0.884736, 35.049042, -42.926895, 46.738617
1648228422.452265, -0.355389, -6.361394, -0.223559, -0.182254, 0.351101, 0.804760, 33.758377, -42.429108, 46.000290
1648228422.485660, -0.902913, -5.646425, 0.068684, -0.437487, 0.371839, 0.736880, 32.415970, -41.646408, 45.194748
1648228422.518906, -1.505953, -6.192453, -0.031723, -0.512527, 0.348974, 0.755430, 31.011093, -41.015533, 44.339905
1648228422.551643, -2.238279, -7.288848, -0.141408, -0.487055, 0.212831, 0.662061, 30.218048, -40.717575, 43.152481
1648228422.585593, -2.790741, -8.035539, -0.185251, -0.376997, 0.083309, 0.416506, 29.055069, -40.053467, 42.256378
1648228422.618770, -3.047220, -8.060978, -0.125995, -0.310628, 0.179861, 0.282462, 28.649994, -39.858749, 41.875687
1648228422.652233, -3.011906, -8.857349, -0.155623, -0.260552, 0.318499, 0.238414, 28.402573, -39.430099, 40.906815
1648228422.685579, -3.662680, -11.656021, -0.680253, -0.056804, 0.246766, 0.136129, 28.085220, -39.342300, 40.573639
1648228422.718963, -3.763685, -12.621932, -1.451335, 0.128899, 0.101314, -0.169151, 28.329727, -39.316528, 40.342941
1648228422.752321, -1.572841, -12.339117, -1.795202, 0.226695, 0.133056, -0.190233, 28.604507, -39.454956, 40.530304
1648228422.785574, -2.453907, -14.911686, -2.021454, 0.459385, -0.854286, -0.476395, 28.951218, -39.852768, 41.036301
1648228422.818951, -4.489727, -14.387057, -3.086276, 0.543073, -0.868006, -1.130526, 30.626099, -40.716080, 42.959854
1648228422.852239, -1.640776, -8.275109, -3.716848, 0.599088, 0.643146, -1.087813, 32.193542, -41.498047, 43.728333
1648228422.885633, 1.729212, -7.860314, -1.780837, 0.380667, 1.808699, -0.475483, 33.332031, -42.030838, 43.243027
1648228422.918908, 1.628356, -9.398139, -1.209072, 0.226836, 0.613074, -0.374049, 34.087250, -42.331100, 42.195709
1648228422.952241, 1.739836, -9.226355, -0.735020, 0.189917, -0.754536, -0.572998, 34.692352, -42.725433, 42.992523
1648228422.985337, 0.627281, -8.077438, -1.342698, 0.176761, -1.182691, -0.747260, 35.862579, -43.072342, 44.021805
1648228423.018543, -0.671723, -6.972514, -1.640028, 0.019687, -0.998125, -0.867066, 37.394958, -43.662201, 44.641785
1648228423.052242, -1.396268, -6.680272, -1.572691, -0.089086, -0.596826, -0.821493, 38.854034, -44.120148, 45.189972
1648228423.085626, -2.092233, -7.698855, -1.126622, -0.251771, -0.256774, -0.862706, 40.126694, -44.629013, 44.896591
1648228423.118908, -1.629853, -8.153154, -1.888277, -0.148659, -0.260150, -0.745110, 41.375412, -44.930573, 44.457169
1648228423.152303, -1.757643, -8.284237, -1.773655, -0.136648, -0.241830, -0.533346, 42.646423, -45.382492, 44.303513
1648228423.185648, -1.565359, -7.387309, -1.698536, -0.085831, -0.126966, -0.275876, 43.298172, -45.565155, 44.347687
1648228423.218945, -1.634940, -8.405144, -1.608455, -0.000953, -0.140430, 0.117223, 43.199142, -45.802246, 44.241486
1648228423.252299, -1.778293, -10.449792, -1.776647, 0.105138, -0.307041, 0.273342, 42.413208, -45.469910, 44.318069
1648228423.285604, -1.351527, -12.040141, -2.012027, 0.195667, -0.370129, 0.304247, 42.071686, -45.712479, 44.611420
1648228423.318916, -1.284340, -13.920487, -2.092981, 0.284196, -0.336571, 0.310062, 41.396881, -45.483688, 44.957581
1648228423.352247, -0.937180, -16.550966, -1.511938, 0.346042, -0.002462, 0.660712, 40.228287, -45.169846, 45.832932
1648228423.385637, -0.296881, -12.866440, -0.371999, 0.086852, 0.202310, 0.567708, 38.989456, -44.786560, 45.985031
1648228423.418922, -0.616058, -10.912622, -0.657957, -0.009066, 0.663355, 0.235476, 38.327530, -44.882278, 45.823593
1648228423.452241, -0.308104, -10.762086, -0.152181, -0.248598, 1.627491, 0.386327, 37.722290, -44.442383, 44.459412
1648228423.485587, 1.343147, -10.086472, 0.053570, -0.304219, 1.711636, 0.743297, 36.673798, -44.106720, 42.695877
1648228423.518912, 1.685518, -9.428067, -0.333093, -0.356949, 0.955770, 0.834474, 35.536026, -43.393036, 41.361374
1648228423.552245, 1.433528, -7.836821, -0.581192, -0.395568, -0.264006, 0.815177, 33.994247, -42.655914, 40.852493
1648228423.585606, 0.378733, -6.450428, -0.596755, -0.441700, -0.498702, 0.782716, 32.293030, -41.855087, 40.097443
1648228423.618927, -0.552612, -5.508908, -0.598401, -0.531733, -0.374749, 0.834894, 31.108536, -41.059448, 40.179260
1648228423.652249, -1.058387, -6.098780, -0.640150, -0.486933, -0.168137, 0.884372, 29.697403, -40.200439, 39.121475
1648228423.685579, -1.855806, -7.357382, -0.515352, -0.370840, -0.253601, 0.760461, 27.988770, -39.044205, 38.358307
1648228423.718914, -3.034052, -7.738509, -0.678756, -0.293238, -0.510278, 0.441604, 26.893982, -38.275467, 38.350540
1648228423.752263, -3.241300, -7.833828, -1.134702, -0.171282, -0.481786, 0.204514, 26.316101, -37.928268, 38.605927
1648228423.785580, -3.323152, -9.456049, -1.145476, -0.013474, -0.029453, 0.304782, 25.727264, -37.422089, 38.878906
1648228423.818914, -3.806930, -12.059743, -1.555333, 0.071180, -0.089979, 0.247810, 25.324631, -37.269608, 39.312805
1648228423.852294, -4.795885, -12.593950, -2.119168, 0.164294, -0.418730, -0.126963, 25.492645, -36.890976, 39.746948
1648228423.884671, -4.976797, -11.562647, -2.650082, 0.246042, -0.236164, -0.727861, 26.100571, -37.440384, 40.223465
1648228423.918923, -3.922750, -12.388198, -2.396745, 0.416703, 0.398530, -0.550473, 27.609268, -37.723114, 40.381409
1648228423.952301, -1.241394, -11.136779, -2.321478, 0.528217, 0.523096, -0.400796, 28.211899, -37.898529, 40.999466
1648228423.985583, 0.939275, -8.949376, -2.208352, 0.555014, 0.281641, -0.220434, 28.813400, -38.319351, 41.434677
1648228424.018928, 1.858050, -9.417293, -0.867599, 0.394024, 0.053943, -0.036815, 29.188644, -38.095291, 42.106049
1648228424.051781, 0.330998, -11.308413, -0.316184, 0.255870, -0.835639, -0.340278, 29.739517, -38.266205, 42.879852
1648228424.085587, -0.611719, -10.795156, -1.088015, 0.185161, -1.429663, -0.851511, 30.465469, -38.575394, 44.178116
1648228424.118919, -1.344045, -8.907178, -1.117943, 0.063190, -0.878722, -1.068139, 32.458679, -39.379333, 45.199875
1648228424.152275, -1.609951, -7.045986, -0.725144, -0.039087, -0.578976, -1.020880, 34.088882, -40.090225, 45.757950
1648228424.185661, -1.579275, -7.014861, -0.383222, -0.111621, -0.714993, -0.907492, 35.527100, -40.228241, 45.646439
1648228424.218971, -1.808221, -7.295132, -0.302268, -0.140928, -0.914539, -0.736723, 36.988708, -40.738525, 46.001801
1648228424.252244, -2.759916, -7.695712, -0.818518, -0.075098, -0.936094, -0.542732, 38.352295, -41.173569, 46.546631
1648228424.285583, -3.383605, -7.488913, -0.955436, -0.028333, -0.618231, -0.404262, 39.105667, -41.000641, 46.971100
1648228424.318914, -3.404106, -7.396287, -0.924162, -0.056094, -0.054653, -0.288653, 39.751938, -41.206573, 46.727936
1648228424.352249, -2.932598, -9.008333, -1.348833, 0.003899, 0.177705, -0.109394, 40.191818, -41.343460, 46.647720
1648228424.385606, -3.045574, -11.733833, -0.890344, 0.102562, 0.265040, 0.128060, 40.360764, -41.198776, 46.827011
1648228424.418951, -2.409165, -11.861623, -1.182287, 0.218773, 0.474620, 0.089608, 40.182327, -41.270782, 46.846649
1648228424.452280, -0.987309, -12.958018, -1.446996, 0.390438, 0.256504, 0.223752, 40.037796, -40.967743, 47.289444
1648228424.485699, -1.847276, -14.400524, -0.135721, 0.238705, 0.382645, 0.246187, 39.859390, -40.932953, 47.763458
1648228424.518916, -0.828394, -11.763910, -0.019004, 0.045439, 1.367683, 0.278171, 39.511810, -40.809143, 47.236649
1648228424.552251, 0.654365, -10.866234, 0.049231, -0.071794, 1.671916, 0.536934, 38.782272, -40.621353, 46.090988
1648228424.585603, 0.518345, -12.830976, 0.866402, -0.330159, 1.542343, 0.759825, 37.969482, -40.409546, 45.133972
1648228424.618917, 0.302567, -12.847136, -0.210839, -0.289779, 1.074996, 0.957585, 36.940109, -40.306503, 44.220627
1648228424.652243, -0.068384, -11.318588, -1.343446, -0.219465, 0.883372, 0.886777, 35.636520, -40.007843, 42.966919
1648228424.685564, -0.386664, -8.350227, -1.217302, -0.220985, 1.035588, 0.796573, 33.971100, -39.565079, 41.952423
1648228424.718220, -0.718709, -6.958747, -0.416441, -0.391101, 1.205513, 0.726363, 33.115189, -39.236160, 40.861877
1648228424.752258, -0.558148, -5.914426, -0.054618, -0.606768, 1.130964, 0.748245, 32.204346, -38.840347, 39.290680
1648228424.785587, -0.180762, -5.696853, -0.026187, -0.596244, 0.823009, 0.890387, 30.798492, -37.985855, 37.365158
1648228424.818920, -0.735319, -6.174048, -0.014066, -0.564993, 0.205263, 0.980313, 29.569839, -37.494324, 36.523285
1648228424.852248, -1.754501, -6.536171, -0.155174, -0.463158, -0.644275, 0.806792, 28.040787, -36.701385, 36.271896
1648228424.885585, -3.167678, -6.616376, -0.392200, -0.394824, -0.736225, 0.617254, 26.584915, -35.946609, 36.104645
1648228424.918984, -4.971709, -7.522432, -0.874781, -0.155481, -0.524614, 0.369462, 25.700790, -35.783005, 36.162354
1648228424.952252, -6.175095, -9.318831, -0.378733, 0.238136, 0.082820, -0.269201, 25.565186, -36.139771, 36.794250
1648228424.985596, -5.872228, -13.418902, -0.477194, 0.225730, 0.834225, -0.620103, 26.029510, -36.700394, 36.475601
1648228425.018936, -3.725228, -13.058574, -2.899677, 0.408341, 1.094854, -0.980802, 27.663666, -37.998398, 36.427048
1648228425.052255, -1.371578, -14.877419, -3.380912, 0.717029, 0.221440, -0.671718, 28.768997, -39.151001, 36.627899
1648228425.085602, -1.202189, -14.878317, -3.535188, 0.710680, -0.399538, -0.793798, 29.516281, -40.005463, 37.691940
1648228425.118932, 0.994342, -9.128193, -3.272724, 0.685262, 0.164089, -0.612704, 30.256241, -40.651276, 39.203140
1648228425.152280, 2.150741, -9.539697, -1.657236, 0.482843, 0.488274, -0.551741, 30.869385, -41.088989, 39.196716
1648228425.185599, 1.587655, -10.402657, -1.977162, 0.288173, -0.618220, -1.180359, 31.934052, -41.844818, 40.183533
1648228425.218700, 0.659004, -9.047090, -1.698088, 0.086566, -0.852083, -1.542532, 34.248032, -42.956497, 41.046936
1648228425.252286, -0.387262, -7.479636, -1.059434, -0.120743, -0.669593, -1.551916, 36.430069, -43.969772, 41.473602
1648228425.285600, -0.445322, -6.423194, -0.891840, -0.247160, -0.815188, -0.981399, 38.057785, -44.591888, 41.451096
1648228425.318927, -0.625036, -6.625654, -0.973393, -0.243752, -0.832096, -0.608158, 39.087555, -44.981903, 41.570908
1648228425.352281, -1.026514, -7.068880, -1.292869, -0.280325, -0.860755, -0.392559, 39.351624, -45.299393, 41.503143
1648228425.385591, -1.183185, -7.628375, -1.778593, -0.198822, -0.685787, -0.254309, 39.367218, -45.621216, 41.815231
1648228425.418022, -1.186925, -7.938275, -1.943643, -0.075082, -0.491384, -0.165227, 39.520691, -45.654495, 41.713394
1648228425.451403, -0.988656, -8.245182, -1.804480, -0.014866, -0.532777, -0.191074, 39.699768, -46.086121, 42.284302
1648228425.485632, -0.688483, -8.706963, -2.182913, 0.070679, -0.592597, -0.142206, 39.587143, -46.113892, 42.499481
1648228425.518925, -1.007959, -9.836727, -2.386869, 0.204225, -0.760684, -0.074094, 39.207779, -46.033600, 43.182938
1648228425.552281, -1.816002, -11.416751, -2.603395, 0.355833, -0.739619, -0.162266, 39.100113, -46.249573, 44.198135
1648228425.585594, -2.214038, -12.437429, -2.295441, 0.401022, -0.714975, -0.544104, 39.250992, -46.538544, 45.254959
1648228425.618927, -2.801366, -13.791050, -2.025195, 0.456608, -0.280874, -0.668452, 39.979767, -46.877716, 46.522217
1648228425.652298, -1.900547, -13.402891, -0.912490, 0.387345, 0.726875, -0.281522, 40.384064, -46.555557, 47.176865
1648228425.685632, 0.618003, -12.058247, -0.572813, 0.257546, 1.788337, 0.192166, 39.551865, -46.312042, 46.600525
1648228425.718940, 2.923620, -11.522544, 0.351948, -0.057375, 1.968055, 0.830358, 38.168381, -45.729507, 46.035675
1648228425.751837, 3.541922, -10.918906, -0.028880, -0.181139, 1.445127, 1.022416, 36.344696, -44.772751, 45.122391
1648228425.785608, 3.324199, -10.550499, -0.425569, -0.166213, 0.827187, 1.252966, 33.797409, -43.410126, 44.108047
1648228425.818932, 1.839196, -10.004920, -0.675763, -0.279490, 0.108044, 1.252475, 31.377213, -42.191605, 43.593597
1648228425.852308, -0.109684, -8.214207, -0.678906, -0.391408, -0.240450, 0.934922, 29.583694, -40.800140, 42.965607
1648228425.885648, -0.414945, -6.703914, -0.786196, -0.489030, -0.120466, 0.773719, 27.945007, -39.461929, 42.507111
1648228425.918930, -0.693720, -5.921609, -0.782754, -0.566744, 0.277839, 0.877581, 26.688400, -38.557281, 41.830566
1648228425.952352, -1.213262, -5.952734, -0.534057, -0.563714, 0.353997, 0.929175, 25.566223, -37.328369, 40.439346
1648228425.985603, -1.733701, -6.932411, -0.471059, -0.546608, 0.114285, 0.927574, 23.447372, -35.571655, 39.537308
1648228426.018930, -2.150891, -7.357082, -0.810886, -0.469476, -0.290862, 0.837802, 22.200317, -34.330338, 38.961273
1648228426.052278, -2.685097, -7.931541, -0.953940, -0.353412, -0.394520, 0.789671, 21.192963, -33.281677, 39.377014
1648228426.085626, -3.753809, -9.954492, -0.905607, -0.171514, -0.436716, 0.753917, 19.816711, -31.966324, 39.524597
1648228426.118942, -4.938789, -11.099369, -1.201440, -0.080312, -0.610934, 0.330859, 19.068817, -30.585236, 40.051895
1648228426.152261, -5.449203, -12.422764, -2.149544, 0.152484, -0.058988, -0.536785, 19.301163, -30.708160, 41.152161
1648228426.185597, -1.745822, -12.009016, -1.819444, 0.057265, 0.769238, -0.684234, 20.292603, -30.800812, 40.654663
1648228426.218930, -1.877802, -16.180314, -2.157625, 0.430740, -0.042992, -0.354246, 21.085541, -31.123856, 41.335114
1648228426.252259, -3.397671, -13.842975, -3.093009, 0.609937, -1.084203, -1.274221, 22.437622, -31.807755, 43.239365
1648228426.285597, 0.386813, -7.992893, -3.433734, 0.573004, 0.170848, -0.895323, 24.053894, -32.732620, 44.208389
1648228426.319009, 2.114529, -8.132804, -1.697938, 0.352517, 0.850696, -0.036037, 24.761414, -32.703674, 44.507523
1648228426.352271, 1.212214, -9.353098, -1.298405, 0.222972, -0.657108, -0.239858, 25.020706, -32.471161, 44.851990
1648228426.385624, 0.881515, -8.846126, -0.744447, 0.116289, -1.592492, -0.460212, 25.686539, -32.586243, 46.071320
1648228426.418938, -0.367959, -7.321918, -1.071106, -0.100318, -1.809698, -0.657850, 26.555450, -32.923386, 47.583450
1648228426.452276, -1.390433, -6.802226, -1.544260, -0.247474, -1.652082, -0.838138, 28.098450, -33.737549, 49.488922
1648228426.485622, -2.327463, -7.228544, -1.369334, -0.287529, -1.210955, -0.800194, 29.328415, -33.920441, 50.455582
1648228426.518948, -3.143437, -7.878270, -1.048511, -0.299286, -0.850073, -0.853405, 30.566299, -34.232834, 50.926102
1648228426.552278, -2.968810, -8.290671, -1.348085, -0.147689, -0.613873, -0.853983, 32.436401, -34.953232, 51.195633
1648228426.585638, -2.699163, -8.451681, -1.550395, -0.101009, -0.473477, -0.638097, 33.536560, -35.032364, 51.339127
1648228426.618941, -2.829797, -7.801955, -1.421557, -0.152346, -0.386000, -0.521017, 34.603210, -35.043381, 51.543594
1648228426.652269, -3.472640, -8.982446, -1.593940, -0.130481, -0.213609, -0.472840, 35.627365, -35.127762, 51.637421
1648228426.685625, -3.639635, -10.939856, -1.728015, 0.044019, 0.393566, -0.424768, 36.345505, -35.298279, 51.768753
1648228426.718959, -0.783353, -11.403732, -1.988833, 0.196709, 0.830998, -0.153584, 36.665588, -34.861221, 51.398865
1648228426.752289, 0.560094, -12.610859, -1.962946, 0.353398, 0.524432, 0.168915, 36.708450, -34.505707, 51.748444
1648228426.785602, 0.956035, -14.977228, -0.545429, 0.259797, -0.336552, 0.771050, 36.044525, -33.829391, 52.349152
1648228426.818936, 0.278625, -13.275250, -0.052373, 0.060069, -0.412053, 0.700807, 35.575470, -33.381653, 52.599274
1648228426.852269, -1.104026, -11.656470, -1.461510, 0.004902, 0.126873, 0.373016, 35.398590, -33.239883, 52.429016
1648228426.885604, -0.864606, -11.488577, -1.497424, -0.096000, 1.507417, 0.337289, 34.726913, -32.769485, 52.013504
1648228426.918952, 0.237176, -10.946589, -0.872836, -0.083505, 1.943231, 0.619623, 33.988678, -32.466385, 50.801651
1648228426.952267, 0.975338, -10.267235, -0.216226, -0.095132, 1.504481, 0.803884, 32.957550, -31.949219, 49.631943
1648228426.985624, 0.737115, -8.492533, -0.032771, -0.214942, 0.360267, 0.806645, 31.732620, -31.515503, 49.350525
1648228427.018986, -0.210091, -6.868366, -0.017957, -0.342451, -0.086834, 0.760063, 30.872025, -31.025482, 48.763077
1648228427.052272, -1.306636, -5.583129, -0.112976, -0.418346, 0.007839, 0.721209, 30.311752, -30.515259, 48.963531
1648228427.085605, -1.387739, -5.477036, -0.165050, -0.455937, 0.411004, 0.746166, 28.960098, -29.981903, 48.015289
1648228427.118947, -1.445649, -6.325182, -0.286855, -0.402810, 0.601256, 0.889157, 28.200302, -29.468658, 46.916794
1648228427.152275, -2.457648, -8.247576, -0.198569, -0.269303, 0.182631, 0.792451, 27.049286, -28.538574, 46.149475
1648228427.185615, -3.073407, -8.711153, -0.117765, -0.180463, -0.213057, 0.449915, 26.425888, -28.130829, 46.308502
1648228427.218950, -3.697994, -8.734796, -0.073921, -0.206158, -0.253014, -0.105539, 26.239899, -28.116821, 46.697296
1648228427.252288, -2.686294, -9.761908, -1.340753, 0.014677, -0.156955, 0.069872, 25.855118, -28.250900, 46.794830
1648228427.285618, -3.686622, -13.061268, -1.515829, 0.033252, -0.191756, -0.114341, 25.664001, -28.225342, 47.388489
1648228427.318940, -3.416077, -13.049447, -2.001553, 0.060852, 0.106497, -0.508282, 26.337143, -28.879959, 47.405884
1648228427.352358, -3.159598, -14.921563, -2.303821, 0.323904, 0.063018, -0.351953, 26.302505, -29.097992, 47.653763
1648228427.385615, -2.089091, -12.383260, -2.975693, 0.386750, 0.168990, -0.409240, 26.547363, -29.166931, 47.994995
1648228427.418945, 0.071078, -8.312967, -2.992602, 0.382489, 0.632902, -0.481828, 27.081955, -29.412064, 47.897980
1648228427.452328, 1.634192, -7.689128, -1.800140, 0.191297, 0.785079, -0.241947, 27.038452, -29.567001, 47.640076
1648228427.485612, 1.412130, -10.389189, -1.666963, 0.147116, 0.053209, -0.214795, 27.057312, -29.623535, 47.716660
1648228427.518965, 0.455796, -11.165060, -1.505654, 0.224351, -0.779877, -0.507081, 27.440872, -29.697525, 48.312943
1648228427.551653, -0.102202, -9.074324, -1.566257, 0.182176, -1.010698, -0.890857, 28.363327, -30.331390, 49.982285
1648228427.585606, -1.044321, -6.614431, -1.547851, 0.080470, -0.854330, -1.022368, 29.579102, -31.007782, 50.898224
1648228427.618949, -1.381155, -6.110601, -1.261295, -0.017058, -0.615071, -1.014633, 30.809448, -31.687485, 51.007645
1648228427.652289, -1.620126, -6.580613, -0.976685, -0.098481, -0.364849, -0.883413, 32.163300, -32.170944, 51.535721
1648228427.685621, -1.820790, -7.661146, -0.984316, -0.130385, -0.324929, -0.689135, 32.889862, -32.854050, 51.860672
1648228427.718958, -1.895011, -7.666234, -1.523460, -0.166662, -0.350464, -0.549520, 33.610428, -32.932663, 51.746765
1648228427.752293, -1.321899, -7.958925, -1.946037, -0.095024, -0.318093, -0.134662, 33.721130, -33.077759, 52.177338
1648228427.785625, -1.891120, -9.528025, -1.680430, -0.088956, -0.279868, 0.061942, 33.430389, -32.576935, 52.064453
1648228427.818965, -2.409614, -10.685621, -1.926584, 0.010840, -0.240756, 0.112366, 33.483978, -32.279388, 52.364502
1648228427.852269, -2.207454, -11.893945, -2.206706, 0.129491, 0.020709, 0.149885, 32.856018, -31.805847, 52.689438
1648228427.885607, -0.965761, -11.620707, -2.343774, 0.197917, 0.064369, 0.104722, 32.615448, -31.202530, 52.731018
1648228427.918946, -0.275333, -14.066533, -1.787272, 0.296746, 0.060667, 0.182632, 32.368011, -30.700195, 52.791489
1648228427.952276, 0.979677, -14.047829, -1.235558, 0.230281, -0.019609, 0.529761, 31.938461, -29.979218, 52.979202
1648228427.985609, 0.917428, -10.936115, -0.780360, 0.116469, -0.163299, 0.356138, 31.200531, -29.265701, 53.378250
1648228428.018946, 0.245855, -10.604667, -0.582240, -0.124171, 0.108173, 0.356861, 30.851410, -28.751862, 53.025970
1648228428.052292, 0.252888, -11.274894, -0.828693, -0.242062, 0.619096, 0.567508, 29.932404, -28.048813, 52.541031
1648228428.085614, 0.073322, -11.340136, -0.812682, -0.166205, 0.716902, 0.636524, 29.363495, -27.350098, 51.296066
1648228428.118963, -0.215329, -9.530868, -0.807594, -0.137210, 0.484811, 0.603850, 28.579590, -26.763046, 50.552505
1648228428.152285, -0.556502, -8.034492, -0.515053, -0.179595, 0.295424, 0.615424, 28.134216, -26.058075, 50.150299
1648228428.185612, -1.154454, -6.820632, -0.342221, -0.308730, 0.246299, 0.492756, 27.527985, -25.345093, 49.283218
1648228428.218999, -1.553238, -6.146963, -0.469264, -0.372671, 0.375345, 0.394397, 27.164688, -25.046768, 48.451172
1648228428.252274, -1.572990, -6.451775, -0.622492, -0.362526, 0.503076, 0.417660, 26.873917, -24.457489, 47.597931
1648228428.285612, -1.739537, -6.808810, -0.533458, -0.327878, 0.384679, 0.349272, 27.032059, -24.138153, 46.711365
1648228428.318948, -2.137274, -7.504625, -0.462231, -0.268566, 0.241682, 0.248183, 26.532135, -23.556046, 45.733200
1648228428.352315, -2.423680, -8.358308, -0.304662, -0.246904, 0.268729, 0.208218, 26.665894, -23.149002, 44.825684
1648228428.385625, -2.436998, -9.605088, -0.467019, -0.182659, 0.231497, 0.253786, 26.589203, -22.702255, 44.834335
1648228428.418952, -2.866608, -12.038046, -1.009605, -0.043756, 0.101879, 0.153415, 26.841858, -22.473160, 44.042114
1648228428.452281, -2.677615, -11.367969, -1.930475, 0.087431, -0.110987, -0.262191, 27.286835, -22.433716, 43.545654
1648228428.485687, -1.713051, -12.287492, -2.240374, 0.174063, -0.025262, -0.311846, 27.939133, -22.619659, 43.728195
1648228428.518948, -2.835333, -15.292514, -2.816629, 0.492234, -0.355146, -0.328462, 28.537857, -23.003403, 43.901855
1648228428.552281, -2.060659, -10.725575, -4.370615, 0.606462, 0.190309, -0.509303, 29.355042, -23.458939, 44.232178
1648228428.585628, 1.580323, -8.307132, -3.368492, 0.616904, 1.056438, -0.211773, 30.130341, -23.788605, 43.857574
1648228428.618980, 2.036269, -10.467001, -2.177975, 0.366696, 0.393726, 0.107406, 30.147995, -24.106781, 43.453537
1648228428.652281, 0.382324, -10.895114, -1.539322, 0.346615, -0.756885, -0.356776, 30.426788, -24.148361, 44.254807
1648228428.685640, -0.451008, -8.342745, -1.441309, 0.258234, -0.725748, -0.684193, 31.409378, -25.002502, 44.464905
1648228428.718966, -0.639252, -6.363638, -1.558027, 0.106296, -0.432076, -0.872085, 32.196487, -25.507034, 45.148315
1648228428.752286, -0.962170, -5.842750, -1.335815, -0.022914, -0.405732, -0.827822, 33.752945, -26.253571, 45.232513
1648228428.785625, -1.225831, -6.859388, -1.113753, -0.069580, -0.428673, -0.634916, 34.718842, -26.985092, 45.060440
1648228428.818951, -1.503409, -7.885303, -1.201440, -0.028573, -0.464979, -0.265885, 35.228729, -27.132263, 45.355484
1648228428.852310, -2.036418, -7.893833, -1.556381, -0.012053, -0.415396, -0.121987, 35.889450, -27.395477, 45.260818
1648228428.885626, -2.510171, -7.996933, -2.119317, 0.004706, -0.195255, -0.034494, 36.182297, -27.573135, 45.270386
1648228428.918959, -2.144157, -8.666262, -1.868824, -0.053566, 0.124750, 0.118289, 36.465042, -27.489456, 44.825821
1648228428.952383, -1.645565, -9.759664, -1.723526, -0.062035, 0.118987, 0.300942, 36.195358, -27.520645, 44.594452
1648228428.985651, -1.729960, -11.842320, -1.842189, -0.002435, -0.133349, 0.383079, 36.059128, -27.316101, 44.131851
1648228429.018958, -1.594987, -12.311434, -2.208501, 0.127705, -0.331329, 0.331486, 36.033691, -27.523895, 44.032227
1648228429.052297, -1.344644, -13.269414, -2.056320, 0.292041, -0.568112, 0.311566, 35.899017, -27.493652, 44.821701
1648228429.085614, -1.694496, -13.690195, -0.976685, 0.170759, -0.284442, 0.342805, 35.446884, -27.488266, 45.120636
1648228429.118961, -1.835156, -11.910255, -0.584185, 0.054506, 0.101543, 0.193474, 35.477859, -27.516327, 44.772293
1648228429.152365, -1.453580, -10.757896, -0.693271, -0.098659, 0.909023, -0.025054, 35.553146, -27.843109, 44.341370
1648228429.185621, -0.831387, -10.785878, -0.625186, -0.178121, 1.369888, 0.091497, 35.779922, -28.113235, 42.982056
1648228429.218969, 0.227449, -10.631004, -0.746991, -0.131135, 1.407868, 0.296916, 35.559937, -28.010300, 41.825851
1648228429.252286, 0.736367, -9.583091, -1.044022, -0.084648, 0.738284, 0.466765, 35.250671, -27.984680, 41.468216
1648228429.285619, 0.262015, -7.829189, -1.020828, -0.099304, 0.225773, 0.435277, 34.773148, -27.556061, 40.513580
1648228429.318955, -1.104326, -6.036979, -0.662895, -0.182333, 0.204171, 0.274480, 34.645569, -27.607300, 40.283173
1648228429.352304, -1.198597, -5.366902, -0.571167, -0.264913, 0.635803, 0.295900, 34.523880, -27.554443, 39.564713
1648228429.385617, -1.196203, -6.320992, -0.605434, -0.226622, 0.751193, 0.431115, 34.267914, -27.762680, 39.011536
1648228429.418953, -1.561319, -8.068909, -0.717512, -0.137793, 0.459438, 0.407329, 34.117752, -27.592621, 38.150223
1648228429.452357, -1.610250, -7.776367, -0.928801, -0.047405, 0.060574, 0.302022, 33.921799, -27.533981, 37.811264
1648228429.485621, -1.543362, -7.802105, -0.802207, -0.023226, 0.015894, 0.398985, 33.469376, -27.499863, 37.855362
1648228429.518954, -2.096572, -9.538051, -0.792481, -0.145243, 0.221800, 0.356495, 32.940857, -27.191513, 37.571945
1648228429.552302, -2.479196, -12.720393, -1.583315, 0.039472, 0.081517, 0.294783, 32.621323, -27.157333, 37.003433
1648228429.585620, -2.946514, -12.762890, -1.549647, 0.139047, -0.230358, -0.561593, 32.661514, -27.598358, 37.217682
1648228429.618968, -0.831985, -12.859856, -1.505205, 0.217591, -0.254164, -0.532447, 33.466736, -28.514801, 37.587372
1648228429.652291, -0.713921, -15.061773, -1.710208, 0.240156, -0.810065, -0.535571, 33.825943, -29.013046, 38.048172
1648228429.684680, -1.047164, -11.587487, -3.137751, 0.396733, -0.703071, -0.736731, 34.546173, -29.506531, 38.805435
1648228429.719001, 0.920122, -9.039009, -2.538901, 0.253647, -0.164799, -0.358526, 34.934479, -30.078033, 40.089249
1648228429.752291, 0.842759, -10.561272, -1.656488, 0.077787, -0.377345, -0.170624, 34.835739, -30.179855, 40.257660
1648228429.785632, -0.344466, -10.975769, -1.644667, 0.115383, -1.040813, -0.553400, 35.467972, -30.548065, 41.023407
1648228429.819033, -1.077091, -9.287108, -1.473033, 0.068095, -0.864869, -0.723895, 36.141388, -31.104538, 41.329712
1648228429.852310, -1.537975, -7.176320, -1.541567, -0.018114, -0.582526, -0.877171, 37.227493, -31.935883, 41.976135
1648228429.885638, -1.211466, -6.382792, -1.529745, -0.086167, -0.379290, -0.862802, 38.144821, -32.342712, 42.235336
1648228429.918962, -1.098789, -6.403592, -1.213262, -0.140414, -0.292289, -0.710281, 39.001160, -32.658539, 42.328888
1648228429.952295, -1.293467, -6.872257, -1.148020, -0.140024, -0.334668, -0.609017, 40.009338, -33.233444, 42.378555
1648228429.985626, -1.471237, -7.447464, -1.266233, -0.100222, -0.351972, -0.483596, 40.499298, -33.559937, 42.240067
1648228430.018960, -1.583764, -7.692121, -1.206378, -0.129650, -0.222916, -0.409075, 41.031845, -33.687881, 42.119965
1648228430.052317, -1.651700, -8.867524, -1.568801, -0.062874, -0.081217, -0.262944, 41.188385, -33.999496, 41.940567
1648228430.085628, -2.468422, -11.226412, -2.451812, 0.134023, -0.025705, -0.122734, 41.625076, -34.419052, 42.211288
1648228430.119072, -1.966388, -11.413608, -2.313248, 0.298928, 0.509831, -0.083037, 41.671936, -34.717117, 42.311005
1648228430.152300, -0.298078, -11.154436, -1.489193, 0.241547, 0.672102, 0.183390, 41.802124, -34.630661, 42.182022
1648228430.185634, 0.415544, -12.077550, -1.484555, 0.340512, 0.116874, 0.356604, 41.300415, -34.865341, 42.864288
1648228430.218946, 0.481983, -13.971962, -0.007781, 0.238531, -0.471851, 0.531110, 40.502075, -34.627808, 43.127686
1648228430.252286, -0.504428, -14.257471, -0.259771, 0.229239, -0.259494, 0.554102, 39.873657, -34.564514, 43.817535
1648228430.285610, -0.761356, -11.698219, -1.133804, 0.199349, 0.519804, 0.484371, 38.881638, -34.430939, 44.220383
1648228430.318946, -0.040402, -10.458771, -0.995090, 0.028579, 1.508715, 0.603395, 38.079041, -34.133667, 43.579010
1648228430.352281, 1.114202, -9.877279, -0.673070, -0.107891, 1.782438, 1.026289, 36.973999, -33.958755, 42.512390
1648228430.385621, 1.546205, -9.774777, -0.441132, -0.180524, 1.195065, 1.259227, 34.826309, -33.105515, 41.497665
1648228430.418956, 1.147421, -8.587104, -0.367959, -0.228701, 0.253630, 1.353088, 33.550262, -32.363907, 40.912231
1648228430.452283, -0.125396, -7.540987, -0.314688, -0.272812, -0.581096, 1.200076, 31.571747, -31.476135, 40.639542
1648228430.485618, -1.930924, -6.608445, -0.460884, -0.342922, -0.567015, 0.930519, 30.116776, -30.770782, 40.970123
1648228430.518975, -2.496554, -6.313360, -0.704943, -0.375103, -0.124516, 0.708540, 28.777008, -30.200058, 40.358521
1648228430.552307, -2.545036, -6.786365, -0.860416, -0.285834, 0.624622, 0.573366, 27.935562, -29.684464, 40.006958
1648228430.585631, -2.256834, -7.719205, -0.599448, -0.191242, 0.844656, 0.492517, 27.270355, -29.360397, 39.151321
1648228430.618969, -2.315792, -8.261642, 0.114772, -0.153761, 0.514472, 0.290411, 26.732040, -29.191711, 38.094742
1648228430.652378, -2.568679, -8.120683, 0.096965, -0.158382, -0.316982, -0.000401, 26.394424, -29.169235, 38.027313
1648228430.685646, -2.766650, -9.812785, -0.590620, 0.032817, -0.811645, 0.039208, 26.228745, -29.317047, 38.770355
1648228430.718197, -5.255273, -12.910882, -1.400009, 0.251244, -0.927521, -0.244946, 25.766586, -29.689606, 39.742645
1648228430.752299, -5.216517, -11.903821, -1.906233, 0.183175, 0.047030, -0.645003, 26.511261, -30.455811, 40.526031
1648228430.785653, -3.881899, -14.555848, -1.759140, 0.245913, 0.562975, -0.395478, 26.979263, -30.995361, 40.927246
1648228430.818973, -2.494459, -13.635577, -2.594566, 0.343106, 0.496951, -0.646504, 27.304489, -31.300842, 40.666626
1648228430.852308, 0.405817, -9.170391, -2.963124, 0.305422, 0.533529, -0.786933, 28.450531, -32.347168, 40.551849
1648228430.885687, 3.180847, -8.901342, -1.246481, 0.062488, 0.419488, -0.374492, 29.147263, -32.828476, 40.061951
1648228430.919012, 1.266084, -11.048343, -1.362301, 0.019421, -0.677968, -0.548399, 29.374542, -33.138046, 40.266586
1648228430.952305, 0.436044, -9.676914, -1.328333, -0.019467, -1.821582, -0.901054, 30.304138, -33.834442, 41.687332
1648228430.985647, -0.470161, -8.007557, -1.456273, -0.140839, -1.403781, -1.167543, 31.207031, -34.414429, 42.606583
1648228431.018972, -1.408090, -6.940491, -1.539472, -0.216809, -0.956252, -1.205949, 32.688049, -35.414337, 43.449234
1648228431.052307, -1.645415, -6.514772, -1.410334, -0.193767, -0.656676, -1.125823, 34.773300, -36.276459, 43.816452
1648228431.085635, -1.412729, -6.895151, -1.133056, -0.139001, -0.661199, -0.883744, 35.865005, -37.087677, 43.993530
1648228431.118973, -1.555034, -7.308749, -0.987758, -0.133232, -0.824386, -0.641205, 36.733841, -37.476212, 44.179886
1648228431.152368, -2.202965, -7.528567, -1.290026, -0.125079, -0.852336, -0.463760, 37.476639, -38.100891, 44.443329
1648228431.185722, -2.356044, -7.703643, -1.676689, -0.044913, -0.607588, -0.249480, 37.924423, -38.381912, 44.782837
1648228431.218977, -2.541744, -9.105598, -2.028188, 0.083021, -0.313731, -0.122121, 37.833908, -38.636581, 44.621429
1648228431.252302, -2.020407, -10.802189, -2.195782, 0.114464, 0.013153, 0.009153, 37.898392, -38.572098, 44.871719
1648228431.285662, -1.394473, -11.955895, -2.145055, 0.202647, 0.088214, 0.065788, 37.574646, -38.637726, 45.039154
1648228431.318095, -0.128389, -11.351509, -2.186804, 0.258269, -0.077742, 0.181560, 37.435425, -38.763428, 45.123764
1648228431.352318, -0.176423, -13.390620, -0.983568, 0.272876, -0.331022, 0.424002, 36.847382, -38.705902, 45.265549
1648228431.385647, -0.384718, -13.310564, -0.419733, 0.200445, -0.305628, 0.542317, 35.833328, -38.429962, 46.153534
1648228431.418981, -0.107589, -12.135759, -0.434248, 0.105743, 0.288544, 0.591190, 34.784653, -38.045151, 46.159851
1648228431.452298, 0.070779, -11.502942, -0.931943, -0.004352, 0.805659, 0.670129, 33.977173, -37.686493, 45.593765
1648228431.485636, 0.170138, -11.147403, -0.978031, -0.045726, 1.172800, 0.790005, 32.545319, -37.248413, 44.537659
1648228431.518973, 0.394594, -10.602273, -1.198747, -0.037699, 1.174119, 1.002289, 31.201233, -36.573914, 43.530930
1648228431.552315, 0.739509, -8.940996, -1.068861, -0.071199, 0.823815, 1.069159, 30.010254, -35.920364, 42.583710
1648228431.585637, -0.014515, -7.221361, -0.450858, -0.172731, 0.396779, 1.003681, 28.497833, -35.086990, 41.742142
1648228431.618971, -0.769137, -6.586748, -0.203208, -0.368366, 0.116198, 0.938177, 27.028381, -34.053085, 41.019836
1648228431.652323, -1.241394, -6.571335, -0.282815, -0.416744, 0.069486, 0.985180, 25.741913, -32.979767, 40.199814
1648228431.685642, -2.476502, -7.382670, -0.717363, -0.381005, -0.012208, 0.913551, 24.589340, -32.308746, 39.469131
1648228431.719037, -3.140295, -7.530512, -1.069909, -0.258210, 0.056178, 0.623278, 23.481659, -31.354050, 38.855057
1648228431.752323, -2.491765, -7.399430, -0.732775, -0.143344, 0.575771, 0.482960, 22.982544, -31.285934, 38.005203
1648228431.785639, -2.043451, -8.564059, 0.173729, -0.229231, 0.501583, 0.546181, 22.550568, -30.813416, 37.163452
1648228431.818975, -3.055001, -10.301352, -0.297180, -0.238897, -0.290744, 0.396686, 21.846725, -30.175720, 36.518005
1648228431.852306, -4.915595, -12.247838, -1.334618, -0.005639, -1.280557, -0.328558, 21.506180, -30.358902, 37.642487
1648228431.885650, -5.834370, -11.323077, -2.636315, 0.084200, -0.570639, -0.921775, 22.238235, -31.401947, 38.689392
1648228431.918987, -3.259107, -12.580333, -2.118120, 0.087307, 0.700184, -0.440110, 23.057266, -31.810349, 38.489899
1648228431.951711, -2.863764, -14.133421, -1.954417, 0.317338, 0.555527, -0.453354, 23.911102, -32.561600, 38.085495
1648228431.985656, -1.352125, -11.295694, -2.646790, 0.407641, -0.196168, -0.582037, 24.656372, -33.437759, 38.338074
1648228432.018966, 0.181211, -8.620622, -2.578555, 0.357318, -0.320608, -0.439914, 25.039276, -34.019928, 39.144531
1648228432.052365, 0.094571, -9.240870, -1.893065, 0.194186, -0.098482, -0.563391, 25.889053, -34.696686, 39.858688
1648228432.085698, -0.084246, -10.205733, -1.511938, 0.107904, -0.504659, -0.736690, 26.555023, -35.291763, 40.132492
1648228432.118071, -0.256329, -9.237129, -1.090260, 0.055810, -0.806640, -0.996735, 27.582672, -36.215988, 40.972672
1648228432.152310, -0.342221, -7.553257, -1.006313, -0.097437, -0.823511, -1.127432, 29.578629, -37.419220, 42.066193
1648228432.185727, -0.736965, -6.302137, -1.079336, -0.179420, -0.818778, -0.999808, 30.726852, -38.220810, 42.251755
1648228432.218980, -1.560421, -6.692691, -0.901267, -0.188401, -0.856071, -0.830985, 32.127625, -39.046051, 42.284515
1648228432.252025, -2.213888, -7.576750, -0.796671, -0.158462, -0.859461, -0.692184, 32.987274, -39.507874, 42.915527
1648228432.285654, -3.068918, -8.415619, -0.899472, -0.087044, -0.682626, -0.588525, 33.987717, -40.106003, 43.278763
1648228432.318992, -3.423110, -7.885004, -1.522563, -0.082118, -0.240379, -0.589425, 34.865784, -40.781342, 43.782852
1648228432.352324, -2.568081, -7.957279, -1.712602, -0.045395, 0.331724, -0.397855, 35.510696, -41.040833, 43.494354
1648228432.385646, -1.216703, -9.390358, -1.201291, 0.020253, 0.387707, 0.080250, 35.725586, -41.489243, 43.470734
1648228432.418987, -0.960823, -11.229255, -1.084873, 0.146812, -0.132989, 0.216069, 35.417511, -41.427353, 43.188416
1648228432.452322, -1.477671, -11.790695, -1.709909, 0.287805, -0.296071, 0.263037, 35.240448, -41.366135, 43.892273
1648228432.485748, -1.809717, -12.967744, -2.250400, 0.549354, -0.070277, 0.300579, 34.726059, -41.385117, 45.351151
1648228432.519032, -1.626411, -14.441076, -1.506851, 0.464770, 0.467103, 0.375709, 33.964294, -41.322617, 46.210327
1648228432.551692, -0.977283, -12.279411, -0.368857, 0.351767, 1.169724, 0.373122, 33.569138, -41.247101, 46.235641
1648228432.585647, -0.418985, -10.261099, -0.291344, 0.359225, 1.416827, 0.209686, 33.068390, -41.156158, 45.776291
1648228432.619000, 0.206799, -11.076175, 0.841113, 0.163140, 1.281510, 0.478263, 32.505798, -41.135193, 45.559052
1648228432.652313, 0.200664, -11.285219, 0.116867, 0.156205, 1.335996, 0.872488, 31.485367, -40.377060, 44.986832
1648228432.685649, -0.459836, -10.785878, -0.425270, 0.193290, 1.093112, 1.061453, 29.824280, -39.814819, 44.650940
1648228432.719034, -0.913687, -9.108740, -0.684742, 0.024589, 1.048082, 0.857266, 28.113190, -39.010284, 43.808502
1648228432.752336, -0.912191, -6.713341, -0.424073, -0.097041, 1.248163, 0.691847, 26.960495, -38.621307, 43.041061
1648228432.785652, -0.670376, -5.492748, 0.082301, -0.307109, 1.269691, 0.604487, 26.155197, -38.056900, 42.135742
1648228432.818984, -0.254384, -5.345055, 0.255431, -0.540541, 0.866239, 0.622458, 25.401123, -37.544540, 40.270844
1648228432.852352, -0.479738, -6.667103, 0.373196, -0.585240, 0.308876, 0.666023, 24.392731, -36.701355, 39.034622
1648228432.885372, -1.524059, -7.898471, 0.294337, -0.535670, -0.398370, 0.627088, 23.343765, -36.410233, 38.687515
1648228432.919065, -2.744054, -8.264634, 0.017358, -0.404378, -0.940790, 0.325613, 21.974503, -35.945343, 39.497742
1648228432.952343, -3.413383, -8.968380, -0.625635, -0.121599, -0.739854, 0.163639, 21.579208, -35.892700, 40.298584
1648228432.985714, -5.235371, -13.630489, 0.268151, 0.034724, -0.551169, -0.382254, 21.362442, -36.317963, 41.429504
1648228433.018986, -5.608417, -12.689867, -0.552312, -0.042932, 0.107591, -1.391314, 22.630447, -37.338440, 41.710236
1648228433.052317, -3.050063, -11.361385, -2.565537, 0.258690, 0.853723, -1.040296, 24.540649, -39.027603, 41.588486
1648228433.085649, -1.439065, -14.886547, -1.110910, 0.290138, 0.744528, -0.660123, 25.696457, -39.823593, 41.440674
1648228433.119013, -0.523732, -12.794015, -1.365144, 0.286306, -0.016354, -0.624821, 26.338425, -40.389694, 41.889542
1648228433.152316, 0.256778, -9.257181, -1.818845, 0.321205, -0.013864, -0.278168, 26.681183, -40.887665, 43.367584
1648228433.185718, 1.558775, -9.521590, -1.528997, 0.173609, 0.541184, -0.018009, 26.668793, -40.914139, 43.308945
1648228433.218996, 2.418144, -9.806650, -1.933168, 0.088230, 0.338551, -0.191250, 26.886673, -41.094727, 43.244919
1648228433.252322, 2.286762, -9.626935, -1.537826, -0.011874, -0.690474, -0.645961, 27.351761, -41.458908, 44.029358
1648228433.285652, 0.438289, -7.972542, -0.931494, -0.209951, -1.167839, -1.025206, 28.608383, -42.103607, 44.795578
1648228433.318992, -0.763601, -6.546196, -0.968155, -0.277399, -1.243826, -1.169569, 30.150589, -42.837997, 45.557083
1648228433.352325, -1.522712, -6.004658, -0.924162, -0.231256, -0.816462, -1.017094, 31.799561, -43.763809, 45.774414
1648228433.385721, -2.221370, -6.806416, -0.645237, -0.203703, -0.764820, -0.901453, 33.749985, -44.681046, 46.217896
1648228433.418995, -2.845658, -8.236353, -1.037886, -0.136628, -0.642875, -0.888783, 34.805069, -45.224716, 46.558258
1648228433.452319, -2.130540, -7.802404, -1.521515, 0.074046, 0.303217, -0.420643, 35.900177, -45.682220, 47.299072
1648228433.485669, -1.127968, -8.424597, -1.341950, 0.161172, 0.276111, -0.025884, 36.031708, -45.870911, 47.913986
1648228433.518981, -0.568922, -10.735750, -1.597681, 0.184726, -0.253307, 0.104755, 35.770813, -45.829987, 48.297836
1648228433.552318, -1.469741, -10.515932, -2.329857, 0.272223, -0.185167, 0.015173, 35.548965, -45.734711, 49.496384
1648228433.585676, -2.186804, -11.033529, -2.175282, 0.256388, 0.559020, -0.136404, 35.445480, -45.583298, 50.054504
1648228433.618992, 0.189740, -12.239907, -2.022203, 0.287250, 0.763975, -0.016509, 35.344727, -45.384460, 50.552979
1648228433.652334, 1.187225, -14.108881, -0.660351, 0.275334, 0.275994, 0.274226, 34.594345, -45.141907, 50.954163
1648228433.685654, 1.155651, -14.332739, -0.051176, 0.106752, 0.318085, 0.689771, 33.369019, -44.463425, 51.237183
1648228433.718987, 1.004667, -10.975619, -1.193958, 0.115109, 0.548903, 0.652273, 32.079803, -43.963531, 51.473618
1648228433.752331, 0.744597, -10.588357, -0.333692, -0.116871, 0.737500, 0.698020, 30.974258, -43.097549, 51.144882
1648228433.785654, 0.685041, -10.440365, 0.002245, -0.339040, 1.186988, 0.916722, 29.510391, -42.343781, 49.720413
1648228433.818501, 0.340725, -10.676493, 0.007332, -0.332992, 0.978720, 0.973520, 27.549530, -41.100296, 48.359955
1648228433.852323, 0.450110, -9.140613, -0.410456, -0.452007, 0.474295, 0.941902, 26.235580, -39.922501, 47.670074
1648228433.885656, 0.044293, -7.253384, -0.961871, -0.491780, 0.010599, 0.806841, 25.103897, -38.942032, 46.412354
1648228433.918989, -0.821810, -6.131999, -0.864157, -0.526938, 0.018621, 0.673295, 23.970566, -37.779419, 45.579453
1648228433.952321, -1.371129, -5.897667, -0.337283, -0.533400, 0.182047, 0.593990, 23.238983, -36.712234, 45.093002
1648228433.985659, -1.593491, -6.921338, 0.067187, -0.498892, 0.265737, 0.676030, 22.485138, -35.961212, 44.108170
1648228434.018990, -1.911471, -7.796718, -0.213234, -0.430752, 0.057379, 0.696299, 21.399643, -34.651489, 43.583557
1648228434.052330, -2.256236, -8.193407, -1.104625, -0.278310, -0.217725, 0.576424, 20.710907, -33.773407, 43.751572
1648228434.085657, -2.430863, -8.130110, -1.512537, -0.120373, -0.258825, 0.359330, 20.288864, -33.047333, 44.322952
1648228434.118990, -2.875586, -9.881170, -1.384297, -0.078561, -0.040078, 0.186970, 19.996078, -32.601898, 44.549438
1648228434.152327, -3.415329, -12.316073, -2.200720, 0.044815, -0.137406, -0.252507, 20.418976, -32.019058, 45.253174
1648228434.185667, -2.656217, -12.900856, -2.506729, 0.253834, -0.185028, -1.091589, 21.661346, -32.397598, 45.864029
1648228434.218990, 0.565780, -14.736311, -1.625813, 0.321423, -0.046284, -0.735723, 23.334106, -33.310135, 46.276184
1648228434.252332, 0.242263, -13.703662, -3.366098, 0.578235, -0.849161, -0.565750, 24.639954, -33.481750, 47.967422
1648228434.285683, 0.474501, -9.993996, -3.649811, 0.618126, -0.829032, -0.777319, 26.172546, -33.896500, 49.203140
1648228434.319060, 1.681777, -9.459940, -2.185607, 0.231864, -0.345019, -0.398963, 27.078552, -33.877213, 50.481613
1648228434.352334, 0.241814, -10.333973, -1.829619, 0.131094, -0.781411, -0.543269, 28.403824, -34.090012, 50.783859
1648228434.385689, -0.110881, -9.380931, -0.848296, 0.030239, -1.278216, -0.757417, 29.693161, -34.601135, 52.040314
1648228434.419016, -0.356886, -6.771700, -1.069310, -0.114809, -1.224137, -1.038760, 31.256683, -35.292068, 52.663895
1648228434.452313, -1.233762, -5.499182, -1.194407, -0.165037, -1.092366, -1.058845, 33.425156, -35.731552, 53.300491
1648228434.485645, -1.975516, -5.986851, -1.278204, -0.217856, -0.915014, -0.865865, 35.491547, -36.376053, 53.921082
1648228434.518978, -2.646940, -7.053617, -1.504008, -0.196816, -0.547421, -0.803255, 37.029007, -36.403152, 54.267914
1648228434.552310, -2.401983, -8.190115, -1.875558, 0.040931, -0.088188, -0.772842, 38.408615, -36.827881, 54.437958
1648228434.585646, -1.462708, -8.575731, -1.961450, 0.065421, 0.054645, -0.555120, 39.710739, -36.711441, 54.720139
1648228434.618980, -0.770783, -9.003395, -1.772607, 0.094746, 0.006203, -0.241380, 40.599091, -36.795959, 54.739319
1648228434.652317, -0.847996, -9.952696, -1.528099, 0.089729, -0.159267, -0.081376, 40.955185, -36.416626, 55.103317
1648228434.685706, -0.887052, -11.429619, -1.953818, 0.207621, -0.225419, -0.072434, 41.585770, -36.063232, 55.935349
1648228434.718990, -0.694318, -11.904719, -2.045396, 0.276755, -0.072820, -0.011336, 41.876282, -35.737610, 55.884995
1648228434.752319, -0.293739, -12.313080, -1.971625, 0.390389, -0.153239, 0.174871, 42.177673, -35.577621, 56.249283
1648228434.785657, -0.339528, -14.256872, -1.195006, 0.413067, -0.207361, 0.401494, 42.077255, -35.080551, 56.866821
1648228434.819014, -0.213234, -13.635128, -0.473902, 0.337842, 0.030234, 0.625178, 41.681580, -34.851334, 57.065643
1648228434.852390, -1.110012, -10.967987, -0.335338, 0.097517, 1.002970, 0.555992, 41.077087, -34.344589, 57.003265
1648228434.885069, -0.430507, -10.493337, -0.439336, -0.094067, 1.913512, 0.710173, 40.415131, -34.111038, 55.917297
1648228434.918991, 0.982521, -10.707768, -0.290896, -0.247464, 2.261872, 0.972148, 38.492050, -33.865204, 53.364227
1648228434.952312, 1.324742, -10.095002, -0.464026, -0.325664, 1.617067, 1.220720, 37.042145, -33.466675, 52.461258
1648228434.985728, 0.985813, -8.739884, -0.586579, -0.346614, 1.061301, 1.332778, 35.555496, -32.785645, 50.676926
1648228435.019078, -0.147094, -7.163152, -0.285808, -0.386895, 0.700167, 1.261515, 33.804657, -32.069870, 49.590927
1648228435.052188, -0.490961, -6.423793, 0.085443, -0.513479, 0.446515, 1.182675, 32.531860, -31.319733, 48.183228
1648228435.085727, -0.695516, -6.192154, -0.191686, -0.622612, 0.316284, 1.164152, 31.640747, -30.864670, 47.085953
1648228435.118992, -1.512387, -6.500407, -0.852336, -0.563388, 0.522026, 1.289801, 29.911880, -29.661530, 45.575562
1648228435.151515, -2.706944, -7.397634, -0.559794, -0.229035, 0.341182, 1.108693, 29.071060, -28.881775, 45.139343
1648228435.185303, -2.921076, -8.305486, -0.122703, -0.227098, 0.016203, 0.599137, 28.469040, -28.361679, 44.597733
1648228435.219040, -2.196530, -8.946982, -0.528370, -0.212767, -0.045465, 0.587680, 28.040390, -28.069687, 43.953094
1648228435.252325, -3.604920, -11.312752, -1.250671, -0.074244, -0.444614, 0.278262, 27.942566, -27.881805, 43.600723
1648228435.284809, -4.484938, -12.425009, -1.999009, 0.075034, -0.487520, -0.682353, 28.607117, -28.487076, 43.709183
1648228435.319011, -3.731513, -11.411513, -2.734178, 0.210517, -0.063158, -0.998164, 29.953812, -29.303513, 43.706589
1648228435.351916, -2.417246, -13.721020, -2.127847, 0.306196, 0.213542, -0.863773, 31.609329, -30.479767, 43.730057
1648228435.385662, -0.149488, -12.281057, -2.286911, 0.351855, 0.121002, -0.908921, 32.931076, -31.255615, 43.735245
1648228435.418993, 0.873584, -10.846931, -3.599084, 0.629662, -0.469356, -0.840515, 33.946609, -32.310318, 43.967407
1648228435.452356, 0.873435, -11.628039, -2.346018, 0.586865, -0.907399, -0.691667, 35.230682, -33.162918, 45.462234
1648228435.485685, -0.023343, -10.863241, -1.107468, 0.290639, -1.375943, -0.758900, 36.149292, -33.981064, 46.334808
1648228435.518999, -1.118691, -8.937555, -1.061230, 0.038229, -1.390243, -1.119588, 37.534744, -34.604050, 46.734894
1648228435.552345, -1.152658, -6.359897, -1.834856, -0.061403, -0.977694, -1.315653, 39.064301, -35.452881, 47.260422
1648228435.585698, -0.935983, -5.005228, -1.222539, -0.136917, -0.616022, -1.269231, 41.502838, -36.918747, 46.877747
1648228435.619019, -0.376787, -5.591508, -0.572364, -0.100638, -1.011534, -0.854385, 43.012207, -37.372482, 46.881363
1648228435.652387, -1.029656, -8.275857, -0.205752, -0.280152, -1.697438, -0.476631, 44.124710, -37.837692, 46.831375
1648228435.685673, -2.636764, -9.026589, -1.247529, -0.253393, -1.840778, -0.484053, 44.914093, -38.277267, 46.745575
1648228435.719009, -3.532046, -8.284237, -2.123058, -0.158235, -0.989207, -0.611441, 45.891006, -38.933044, 46.777893
1648228435.752422, -3.057994, -8.330774, -2.347215, -0.152003, -0.115070, -0.510896, 46.532867, -39.076706, 46.065262
1648228435.785698, -2.226308, -10.085724, -1.918504, -0.145584, 0.432221, -0.364116, 47.219528, -39.578033, 45.218552
1648228435.819034, -1.632247, -11.472715, -1.714099, 0.090433, 0.207383, -0.282201, 47.759491, -39.928696, 44.729980
1648228435.852348, -0.592415, -12.090718, -1.545756, 0.216793, -0.222800, -0.183255, 47.955811, -40.281204, 44.659409
1648228435.885674, -0.336385, -12.859407, -1.426944, 0.389517, -0.434833, 0.118523, 47.660751, -40.480316, 44.885056
1648228435.919016, -0.514903, -14.554352, -1.119439, 0.511407, -0.192786, 0.564998, 46.826599, -40.875031, 45.143295
1648228435.952437, 0.304064, -13.348123, -0.229245, 0.379268, 0.331261, 0.813661, 45.350449, -41.111893, 45.491730
1648228435.985700, -0.428263, -11.006744, -0.233884, 0.269957, 0.729205, 0.535782, 44.096176, -41.204315, 45.784485
1648228436.019035, -0.679205, -10.839149, -0.215029, 0.128435, 1.296022, 0.400982, 42.984344, -41.442398, 45.245773
1648228436.052331, -0.174777, -10.248979, -0.276081, 0.066692, 1.815106, 0.564098, 41.951080, -41.648300, 44.301682
1648228436.085685, 0.358083, -9.364621, 0.003142, -0.034912, 1.804626, 0.758547, 40.673645, -41.691116, 43.569580
1648228436.119035, 0.419434, -8.459612, 0.223259, -0.163363, 1.416176, 0.971030, 38.962662, -41.406311, 42.428009
1648228436.152408, 0.083199, -7.363816, 0.322319, -0.309971, 0.729392, 1.069550, 37.116653, -41.129654, 41.303864
1648228436.185684, -0.207098, -6.450279, 0.340575, -0.403703, 0.429429, 1.116720, 35.387711, -40.885300, 40.272232
1648228436.219012, -1.119888, -6.369923, 0.295385, -0.452911, 0.404324, 1.132841, 32.902817, -40.309326, 38.817581
1648228436.252372, -1.965789, -6.906374, 0.228646, -0.518728, 0.481069, 1.010307, 31.540802, -39.695236, 37.456024
1648228436.285767, -2.451363, -7.462727, -0.005237, -0.546515, 0.462536, 0.823042, 30.103287, -39.309113, 35.682327
1648228436.319021, -3.076699, -8.896404, -0.022595, -0.536777, 0.401472, 0.493376, 29.067413, -39.051041, 34.891907
1648228436.352376, -2.693926, -9.620501, -0.625036, -0.421023, 0.299592, 0.334935, 28.451569, -39.252167, 32.990387
1648228436.385683, -2.012775, -10.443059, -1.424101, -0.183730, 0.150394, 0.409069, 27.675964, -38.995865, 32.076355
1648228436.419019, -3.235165, -13.265224, -1.123479, -0.053551, 0.012528, 0.196266, 26.833649, -39.053711, 31.938919
1648228436.452364, -3.691560, -12.461520, -1.900996, -0.063998, -0.329429, -0.412556, 26.756790, -39.838486, 32.009369
1648228436.485741, -2.444630, -14.028675, -2.476951, 0.238685, -0.107471, -0.588900, 27.025208, -40.552551, 31.839798
1648228436.519018, -1.958607, -12.327295, -3.532794, 0.408622, -0.085340, -0.816785, 27.521774, -41.241074, 32.655930
1648228436.552341, -0.409857, -9.656713, -3.917662, 0.584942, 0.439139, -0.962748, 28.980759, -42.751373, 33.070206
1648228436.585675, 1.691653, -9.724649, -2.507028, 0.449224, 0.764403, -0.443766, 29.596375, -43.492645, 33.495926
1648228436.619062, 1.041777, -10.331279, -2.170045, 0.380795, -0.054981, -0.647728, 30.133621, -44.133606, 33.809158
1648228436.652455, 0.402824, -8.741530, -1.442656, 0.315126, -0.802459, -0.933184, 31.055893, -44.906494, 34.458328
1648228436.685693, -0.404171, -7.456591, -1.090409, 0.075267, -0.662374, -1.009688, 32.258591, -45.800827, 35.754852
1648228436.718333, -1.144129, -6.610092, -1.568801, 0.024525, -0.469159, -1.004852, 33.395264, -46.655426, 36.166153
1648228436.752123, -1.043124, -6.124966, -1.159243, 0.052585, -0.288351, -0.964132, 34.789459, -47.557983, 36.411545
1648228436.785694, -0.773776, -6.827515, -0.831237, 0.011354, -0.608364, -0.716288, 36.138107, -48.429657, 36.841171
1648228436.818245, -1.293916, -7.526323, -0.979228, -0.101628, -0.823553, -0.576519, 36.660675, -48.762436, 36.962296
1648228436.852355, -1.684770, -7.743746, -1.480066, -0.014931, -0.796499, -0.526808, 37.026596, -49.393936, 37.756897
1648228436.885502, -1.951125, -7.930045, -1.553089, -0.029443, -0.636336, -0.463136, 37.461487, -49.972549, 37.654449
1648228436.919034, -1.807922, -9.150339, -1.506252, 0.005977, -0.320087, -0.293834, 37.527664, -50.532379, 37.840240
1648228436.952372, -1.329530, -11.067796, -1.524957, 0.103751, -0.452399, -0.244581, 37.635361, -50.817719, 38.066483
1648228436.985689, -1.325939, -11.914146, -1.592593, 0.202088, -0.683039, -0.225832, 37.436584, -51.220261, 38.958572
1648228437.019027, -1.739986, -12.031312, -1.930624, 0.268661, -0.627848, -0.232679, 37.162094, -51.416122, 39.599945
1648228437.052365, -1.845780, -14.972888, -1.449689, 0.406958, -0.123443, -0.011392, 36.948975, -51.417175, 40.448334
1648228437.085682, -0.775123, -13.440898, -1.000028, 0.417039, 0.370217, 0.194286, 36.321091, -51.392975, 41.099152
1648228437.119124, 0.272041, -12.099248, -0.391602, 0.236540, 1.299846, 0.412543, 35.318161, -51.037506, 41.605347
1648228437.152349, 0.793079, -12.070218, -0.288950, 0.041783, 1.637856, 0.521837, 34.234024, -50.645676, 40.841583
1648228437.185702, 2.012476, -11.142914, -0.630722, -0.020765, 1.666481, 0.719499, 33.335495, -50.067780, 39.862244
1648228437.219119, 1.755848, -9.879673, -0.592565, -0.106094, 1.337664, 1.024015, 31.261627, -48.998871, 38.414780
1648228437.252447, 0.902165, -8.376563, -0.394295, -0.159467, 1.049244, 1.088911, 29.530579, -47.897186, 37.659790
1648228437.285776, -0.162357, -6.812102, 0.177470, -0.293387, 0.810766, 1.057350, 27.797989, -46.669510, 36.324112
1648228437.319024, -0.638504, -6.054637, 0.465822, -0.494866, 0.675328, 1.012370, 25.778549, -45.345825, 34.671051
1648228437.352424, -0.985064, -6.022465, 0.421679, -0.648347, 0.550051, 0.984680, 24.095932, -43.911163, 33.211868
1648228437.385684, -1.293767, -6.432172, 0.307206, -0.657483, 0.336483, 0.967610, 22.663330, -42.885345, 31.862442
1648228437.419106, -1.711106, -7.184251, 0.211288, -0.573097, 0.005451, 0.914931, 21.305984, -41.645142, 30.687775
1648228437.452349, -2.496255, -8.590246, 0.103848, -0.373069, -0.352233, 0.809382, 19.354279, -39.972778, 30.334610
1648228437.485231, -3.493290, -9.608081, -0.094272, -0.268860, -0.282827, 0.572751, 18.164062, -39.066559, 30.556717
1648228437.519026, -2.694375, -10.015993, -1.263241, -0.014240, -0.148949, 0.493379, 17.279556, -38.363586, 30.357773
1648228437.551729, -3.540575, -12.652159, -1.616685, 0.167778, -0.136182, 0.164351, 16.633850, -37.865540, 31.019424
1648228437.585749, -3.878457, -12.868086, -2.021305, 0.150661, -0.034025, -0.394808, 17.019623, -37.936935, 31.541199
1648228437.619019, -1.582717, -14.148235, -2.251597, 0.241764, 0.113879, -0.253032, 17.355835, -38.448929, 31.774628
1648228437.652356, -2.305317, -14.033912, -2.593369, 0.282197, -0.425506, -0.626251, 18.477783, -39.273392, 32.950592
1648228437.685700, -2.194585, -10.253468, -3.934870, 0.284225, 0.138193, -0.833297, 19.498322, -40.108551, 33.642166
1648228437.719017, 0.581492, -9.571120, -1.801337, 0.046673, 1.088179, -0.323961, 20.855179, -40.592377, 33.169785
1648228437.752357, 0.698209, -11.307066, -1.861043, 0.148990, 0.405650, -0.339214, 21.609589, -40.811722, 32.229446
1648228437.785701, 0.809091, -11.078121, -2.505083, 0.277168, -1.013939, -0.736421, 22.567123, -41.570206, 33.414154
1648228437.819016, -0.724994, -8.080880, -1.831415, 0.094066, -1.130349, -0.917900, 23.462631, -42.447556, 34.937683
1648228437.852349, -1.754950, -5.897068, -1.957858, 0.011700, -0.635297, -1.180473, 25.168579, -43.365005, 35.721069
1648228437.885741, -1.493683, -5.453094, -1.579126, -0.093542, -0.434371, -1.211667, 27.742569, -44.631531, 36.455856
1648228437.919019, -1.246930, -6.303933, -1.543961, -0.174026, -0.371278, -1.138307, 29.568588, -45.771088, 36.707489
1648228437.952362, -0.858621, -6.667702, -1.592144, -0.097419, -0.349648, -0.935682, 31.282333, -46.293320, 36.776840
1648228437.985433, -1.020678, -7.570765, -1.479766, -0.029218, -0.524557, -0.679726, 32.769180, -47.114304, 36.822678
1648228438.019067, -0.879570, -7.974487, -1.745074, -0.004253, -0.598484, -0.457376, 33.848099, -47.343231, 37.306366
1648228438.052096, -1.050157, -9.090335, -1.730559, 0.011668, -0.599988, -0.237313, 34.352722, -47.802383, 37.579468
1648228438.085707, -1.394772, -10.212318, -1.726519, 0.157249, -0.589720, -0.140551, 34.595322, -47.817673, 38.514053
1648228438.119030, -1.621772, -11.846510, -1.658434, 0.288417, -0.599495, -0.190956, 34.954132, -48.068466, 39.211746
1648228438.151847, -1.255011, -11.509975, -1.859247, 0.304146, -0.849707, -0.192526, 35.451187, -48.453506, 40.153427
1648228438.185694, -1.635539, -14.219164, -1.508946, 0.447488, -0.683363, 0.080293, 35.754227, -48.680954, 41.664673
1648228438.219050, -1.575385, -14.170083, -1.102380, 0.348050, -0.186079, 0.216556, 35.367828, -48.518494, 42.470810
1648228438.252415, -1.197250, -10.552145, -1.872565, 0.247169, 0.561023, 0.105780, 35.469055, -48.767349, 42.825272
1648228438.285702, -0.272490, -11.479299, -1.740585, 0.214088, 1.389608, 0.200776, 35.541550, -48.737320, 42.428497
1648228438.319052, 1.083825, -11.971756, -0.526126, 0.082352, 1.959442, 0.642211, 34.688568, -48.494186, 41.095673
1648228438.352362, 1.739537, -11.519402, 0.007632, -0.036834, 1.208270, 0.737062, 33.932968, -48.076279, 40.264252
1648228438.385763, 1.046715, -9.781960, -0.737115, -0.106411, 0.320733, 0.693053, 33.052612, -47.761292, 39.667725
1648228438.419026, -0.389956, -8.016386, -0.882862, -0.198254, 0.256749, 0.607416, 31.655167, -47.458984, 39.075653
1648228438.452357, -0.919074, -6.154295, -0.525976, -0.301308, 0.600254, 0.595515, 31.107391, -46.948792, 38.252228
1648228438.485757, -0.714370, -5.708974, -0.057162, -0.424654, 0.878617, 0.641727, 30.254364, -46.499939, 36.926666
1648228438.519048, -0.630722, -6.325032, 0.265457, -0.646656, 0.849172, 0.859689, 29.505157, -46.181961, 35.194366
1648228438.552360, -0.907253, -7.276278, 0.131382, -0.766041, 0.552864, 0.943622, 28.127213, -44.891739, 32.832138
1648228438.585710, -0.908151, -7.615656, -0.313790, -0.732109, 0.133559, 0.968333, 26.630096, -43.922516, 31.452774
1648228438.619044, -1.443853, -8.007108, -0.455647, -0.566314, -0.298911, 0.860879, 25.287048, -43.144394, 30.696350
1648228438.652360, -2.497003, -9.532963, -0.571017, -0.395778, -0.408994, 0.718699, 23.579117, -42.068451, 30.103317
1648228438.685114, -4.275296, -12.599786, -1.447145, -0.063825, -0.579897, 0.330831, 22.667984, -41.900253, 30.374191
1648228438.719105, -4.280234, -12.777854, -2.357989, 0.246991, -0.323029, -0.471016, 22.776871, -42.334183, 30.878189
1648228438.752365, -2.129193, -13.029395, -2.746149, 0.314260, 0.190618, -0.424611, 23.990860, -43.343292, 31.450348
1648228438.785692, -1.109264, -13.154492, -3.186383, 0.372930, -0.202996, -0.544105, 24.742264, -44.037918, 32.023941
1648228438.819036, -0.424073, -11.103858, -3.997419, 0.448109, -0.531761, -0.785924, 25.817078, -44.959885, 32.887650
1648228438.852438, 0.367211, -10.337415, -3.421314, 0.450976, 0.081221, -0.561210, 26.891235, -45.811462, 34.135223
1648228438.885711, 0.367061, -10.395624, -2.621501, 0.418533, 0.130681, -0.514901, 28.242462, -46.548843, 34.461884
1648228438.919034, 0.407912, -9.441834, -1.638681, 0.359652, -0.331208, -0.704691, 29.421051, -47.668930, 35.292435
1648228438.952360, 0.325163, -7.846846, -1.098639, 0.185511, -0.733740, -0.806983, 30.481735, -48.188187, 36.305313
1648228438.985701, -0.630872, -6.787562, -1.243638, 0.050659, -0.755750, -0.920760, 32.454559, -49.373428, 37.291931
1648228439.018606, -1.103877, -6.402245, -1.429488, 0.025911, -0.612387, -1.001331, 33.948975, -50.160507, 37.723312
1648228439.052369, -1.118541, -7.171233, -1.334917, 0.038615, -0.484402, -0.915329, 35.577225, -50.772568, 37.656113
1648228439.085216, -1.308431, -7.833229, -1.186477, 0.033642, -0.517277, -0.857038, 37.486343, -51.736389, 38.040268
1648228439.119066, -1.359458, -7.971794, -1.404648, 0.072757, -0.553393, -0.748127, 38.874985, -52.139694, 38.265396
1648228439.152379, -1.446397, -7.439982, -1.754651, 0.033518, -0.536691, -0.646328, 40.049164, -52.778366, 38.687531
1648228439.185690, -1.567753, -8.273613, -1.790414, 0.018801, -0.364890, -0.520267, 41.185257, -53.221756, 38.442123
1648228439.219033, -2.288707, -10.644022, -1.961450, 0.081239, -0.070849, -0.472949, 42.132019, -53.719727, 38.501663
1648228439.252379, -1.011401, -11.362283, -1.755099, 0.244455, 0.196086, -0.310612, 42.852859, -54.145508, 38.716690
1648228439.285770, -0.392051, -11.905018, -1.245284, 0.189938, -0.046218, -0.075262, 43.190994, -54.665680, 38.831009
1648228439.319034, 0.632069, -14.362666, -1.324143, 0.255434, -0.338268, 0.219137, 42.849991, -54.971741, 39.356064
1648228439.352417, 1.034594, -15.243433, -0.773177, 0.222139, -0.086285, 0.514240, 41.948242, -54.923630, 39.624603
1648228439.385696, 0.949301, -12.688820, -0.762553, 0.098439, 0.377022, 0.503381, 40.805481, -54.918320, 39.676727
1648228439.419034, 0.978181, -11.524190, -1.275361, 0.009024, 0.686843, 0.419214, 39.753586, -54.771378, 39.270874
1648228439.452374, 1.139640, -10.208726, -0.908899, -0.094422, 1.019625, 0.593339, 38.729034, -54.582397, 38.301666
1648228439.485702, 0.919822, -9.374197, -0.533159, -0.094374, 1.079028, 1.010814, 37.285583, -54.317078, 37.800690
1648228439.519036, 0.512210, -8.630349, -0.189890, -0.171127, 0.839437, 1.140553, 34.667984, -53.337936, 36.409958
1648228439.552364, 0.019603, -7.328352, 0.082001, -0.287967, 0.527258, 1.182321, 32.417114, -52.227417, 35.506592
1648228439.585696, -0.359729, -6.729951, 0.014964, -0.427393, 0.236036, 1.240122, 30.186905, -51.454285, 34.363876
1648228439.618465, -0.645387, -6.629993, -0.052972, -0.459621, 0.162591, 1.229152, 27.813065, -50.151154, 33.311737
1648228439.652368, -1.273416, -7.092673, -0.045639, -0.460347, 0.081904, 1.152855, 24.920425, -48.822464, 31.931366
1648228439.685747, -2.140267, -7.500435, -0.166397, -0.450324, -0.036944, 0.948031, 23.081635, -47.675308, 31.131668
1648228439.719070, -2.346617, -7.688530, -0.297180, -0.243340, -0.049288, 0.642578, 21.304489, -46.762268, 30.213394
1648228439.752365, -2.547879, -8.009353, -0.543633, -0.141094, -0.144578, 0.589912, 19.758789, -46.131912, 30.548004
1648228439.785758, -2.765453, -9.578902, -0.774674, -0.150767, -0.133854, 0.643756, 18.611588, -45.439484, 30.043228
1648228439.819029, -2.924068, -12.055853, -1.015740, -0.044381, -0.236867, 0.712467, 16.738586, -44.480072, 29.250916
1648228439.852365, -4.927417, -12.324901, -1.900697, 0.046173, -0.566743, -0.095184, 15.637268, -44.220230, 30.399658
1648228439.885743, -3.799598, -13.095984, -2.201468, 0.089573, -0.152928, -0.525662, 15.951202, -44.739639, 30.949860
1648228439.919049, -3.561225, -14.169035, -1.980603, 0.113673, 0.325892, -0.739352, 16.720306, -45.097382, 30.670578
1648228439.952441, -2.204461, -12.653505, -2.790592, 0.377036, 0.183585, -1.087076, 18.361877, -45.927246, 30.997299
1648228439.985709, 0.736965, -9.564536, -2.427571, 0.443988, 0.270719, -0.992014, 20.420120, -47.072891, 31.822021
1648228440.019050, 1.508646, -9.517101, -1.709460, 0.264173, 0.074270, -0.321684, 21.247223, -47.499405, 32.602646
1648228440.052378, 0.127042, -10.269629, -1.564162, 0.292033, -0.489976, -0.477903, 21.737076, -47.608307, 32.806900
1648228440.084997, -0.875829, -9.262717, -0.868796, 0.294970, -0.903090, -0.907495, 22.948807, -48.478683, 34.880798
1648228440.119059, -1.015441, -7.584831, -1.104026, 0.116862, -0.798801, -1.183470, 24.363724, -49.081558, 35.826981
1648228440.152369, -1.273266, -6.446538, -1.319504, 0.000832, -0.432237, -1.240301, 26.348831, -49.917816, 36.665939
1648228440.185707, -1.381305, -5.977723, -1.062876, -0.003676, -0.177552, -1.263881, 29.012070, -50.686386, 36.917343
1648228440.219077, -1.107318, -6.914754, -0.631770, 0.031819, -0.303889, -1.148504, 30.738358, -51.621140, 37.236572
1648228440.252374, -1.444901, -7.796119, -0.719308, -0.008671, -0.645091, -0.889156, 32.270477, -52.146744, 37.646179
1648228440.285718, -1.599925, -8.204031, -1.005116, 0.016822, -0.593853, -0.656162, 33.491760, -52.516678, 38.130112
1648228440.319039, -1.484106, -8.812158, -1.236605, 0.042694, -0.448255, -0.471206, 33.959900, -52.670624, 38.322250
1648228440.352372, -1.431284, -9.940276, -1.348684, 0.066948, -0.282410, -0.259114, 34.039383, -52.507736, 38.351349
1648228440.385707, -1.421707, -10.999561, -1.492635, 0.120925, -0.129587, -0.156099, 34.288193, -52.461166, 38.788925
1648228440.419062, -0.971148, -12.102689, -1.425298, 0.149857, -0.044548, -0.081342, 34.098389, -52.158737, 39.210754
1648228440.452392, -0.105644, -11.550227, -1.610250, 0.224773, -0.254553, 0.005125, 33.969421, -51.896027, 39.291794
1648228440.485753, -0.248249, -13.063512, -0.863708, 0.209910, -0.234142, 0.266793, 33.547424, -51.411789, 39.857437
1648228440.519052, -0.368408, -13.890859, -0.143652, 0.208434, 0.070588, 0.525352, 32.294556, -50.459412, 40.451538
1648228440.552362, -0.928501, -12.230181, 0.202460, 0.021351, 0.699306, 0.388251, 31.784271, -49.653519, 40.297821
1648228440.585720, -0.662745, -11.011682, -0.129137, -0.132655, 1.489896, 0.370259, 31.108292, -48.800095, 39.582703
1648228440.619043, 0.636109, -10.370484, 0.068085, -0.291368, 2.010108, 0.476048, 30.810486, -47.548950, 36.905945
1648228440.652391, 2.268356, -10.006117, -0.057311, -0.401029, 1.800246, 0.666221, 30.129547, -46.462372, 35.018890
1648228440.685716, 2.381482, -9.117419, -0.411803, -0.534029, 0.831929, 1.067950, 29.054153, -45.071671, 33.385559
1648228440.719042, 1.073351, -7.492355, -0.397886, -0.610988, 0.175414, 1.149336, 27.565506, -43.542618, 32.137848
1648228440.752388, 0.059556, -6.464195, -0.241665, -0.674177, -0.234285, 1.095435, 25.389267, -41.384048, 31.308929
1648228440.785710, -0.807445, -6.165518, -0.312294, -0.669553, -0.214217, 1.055612, 23.735443, -39.862305, 30.709000
1648228440.819077, -1.414524, -7.334338, -0.473304, -0.568442, -0.038071, 1.094271, 21.987701, -38.043060, 29.895004
1648228440.852386, -2.032976, -8.312668, -0.675015, -0.421575, -0.065967, 0.983428, 20.635498, -36.266739, 29.147324
1648228440.885744, -2.518102, -8.275109, -0.790535, -0.272471, -0.153903, 0.532774, 19.755829, -34.988983, 28.839127
1648228440.919116, -2.482039, -8.549096, -0.908450, -0.170981, -0.061071, 0.400460, 19.257233, -34.051239, 28.891602
1648228440.952377, -2.706495, -9.399785, -0.921468, -0.190266, 0.113729, 0.274897, 18.793686, -33.091583, 28.625061
1648228440.985714, -2.858228, -10.984148, -1.686266, -0.061021, 0.013766, 0.001337, 18.943344, -32.678177, 28.849014
1648228441.019099, -3.690662, -12.290784, -1.925237, -0.016463, -0.059298, -0.513520, 19.310944, -32.707535, 28.687927
1648228441.052410, -2.125453, -13.184120, -2.008885, 0.046085, 0.410940, -0.639591, 20.506485, -33.362686, 28.330994
1648228441.085718, -1.412429, -15.494675, -2.205958, 0.398499, -0.005846, -0.424997, 21.930115, -33.855972, 28.963837
1648228441.119057, -2.101361, -13.809306, -3.859154, 0.795417, -0.250867, -0.759977, 22.559082, -34.517944, 30.556335
1648228441.152375, 2.270900, -8.797195, -3.459023, 0.608696, 0.656105, -0.658152, 24.088379, -35.295212, 31.175369
1648228441.185713, 2.976741, -8.106318, -1.580173, 0.207672, 0.213502, -0.517708, 25.623779, -35.707809, 31.616302
1648228441.219040, 1.625214, -9.153033, -1.256507, 0.141292, -1.247811, -0.929895, 26.588577, -36.575012, 32.460129
1648228441.252377, -0.382474, -8.675988, -1.083526, 0.007059, -1.542638, -1.064725, 27.657791, -37.416595, 33.809616
1648228441.285711, -1.299303, -7.599944, -1.339406, -0.090249, -0.931816, -1.235378, 29.401596, -38.301422, 34.945160
1648228441.319095, -1.418564, -6.813898, -1.384148, -0.085937, -0.427631, -1.261318, 31.304840, -39.053833, 35.213898
1648228441.352424, -1.239448, -6.733842, -1.140089, -0.100898, -0.651135, -1.039152, 32.989502, -39.651443, 35.556534
1648228441.385745, -1.356166, -7.387010, -1.459864, -0.091354, -0.750715, -0.909060, 34.289093, -39.931396, 35.707169
1648228441.419055, -1.723975, -7.644237, -1.630302, 0.012409, -0.482140, -0.773296, 35.992615, -40.491501, 36.544983
1648228441.452399, -1.732055, -7.868244, -1.686565, 0.007706, -0.185112, -0.620327, 37.031052, -40.754532, 36.569382
1648228441.485711, -0.955586, -8.864981, -1.642123, 0.001260, 0.083615, -0.484108, 37.970779, -40.605942, 36.640808
1648228441.519056, -0.350451, -9.955091, -1.524957, 0.092062, 0.006792, -0.276708, 38.870422, -40.882278, 36.679672
1648228441.552383, 0.004788, -11.302876, -1.444751, 0.175171, -0.309272, -0.114119, 39.365509, -40.973907, 37.047699
1648228441.585712, -0.347159, -11.869105, -1.800140, 0.220319, -0.437657, -0.070257, 39.827682, -40.822067, 37.465759
1648228441.619043, 0.178368, -11.930307, -2.026542, 0.278847, -0.609143, -0.164605, 40.242920, -40.880356, 38.218140
1648228441.652407, -0.030526, -13.718925, -1.646014, 0.320140, -0.513183, -0.211229, 40.736511, -40.794388, 39.044876
1648228441.685736, -0.579098, -13.477560, -1.083227, 0.310643, 0.227948, 0.082421, 41.154617, -40.816772, 39.341461
1648228441.719051, 0.854730, -11.111340, -1.083227, 0.268946, 1.159245, 0.325471, 41.593613, -41.005798, 39.502563
1648228441.752378, 1.684919, -10.338612, -0.145897, -0.036980, 1.717803, 0.783689, 40.928925, -40.664551, 38.601074
1648228441.785714, 1.860295, -10.519823, 0.011672, -0.137227, 1.628335, 1.052392, 40.386673, -40.433395, 38.117081
1648228441.819065, 2.098967, -10.828376, -0.750433, -0.113650, 1.214256, 1.077025, 39.358215, -40.057434, 37.392883
1648228441.852381, 1.392677, -9.096021, -1.072004, -0.208173, 0.899269, 1.011808, 37.953476, -39.554779, 36.357315
1648228441.885720, 0.770783, -7.282563, -0.768838, -0.305332, 0.892780, 1.065079, 36.991714, -39.073685, 35.558395
1648228441.919045, 0.171784, -6.373963, 0.295834, -0.471418, 0.875912, 1.112272, 35.985489, -38.708969, 34.725937
1648228441.952381, 0.121356, -6.401796, 0.303615, -0.565016, 0.550967, 1.239142, 34.210251, -37.544998, 33.274063
1648228441.985734, -0.385915, -7.619846, 0.465672, -0.611606, 0.155722, 1.239440, 32.965729, -36.952652, 32.067459
1648228442.019064, -1.329829, -8.679729, -0.276680, -0.550081, -0.342293, 0.933705, 31.382828, -35.970444, 31.765671
1648228442.052385, -2.405724, -8.600122, -0.859967, -0.366218, -0.626092, 0.344673, 30.488525, -35.694351, 31.565887
1648228442.085727, -2.903119, -8.222586, -0.842609, -0.331521, 0.140606, -0.202078, 30.728302, -35.907761, 31.746796
1648228442.119117, -1.694646, -8.941894, -0.916081, -0.347336, 0.741551, 0.044040, 31.280640, -36.011017, 30.641434
1648228442.152455, -1.628207, -11.576564, -1.409437, -0.180428, 0.590320, 0.190132, 31.410522, -36.118149, 29.800217
1648228442.185797, -1.605611, -12.674155, -1.882740, 0.007037, -0.302133, -0.119345, 31.422470, -36.473663, 29.929489
1648228442.219080, -0.434099, -13.088203, -2.033126, 0.033874, -0.351901, -0.070279, 31.231628, -36.611801, 30.505844
1648228442.252468, -1.147870, -15.605257, -2.896236, 0.305534, -0.526594, 0.015966, 31.022842, -36.989334, 30.985031
1648228442.285736, -1.876306, -13.227066, -4.388871, 0.598019, -0.064383, -0.485697, 31.176590, -37.512405, 32.038589
1648228442.319090, 0.326659, -9.797522, -4.029142, 0.500255, 0.755972, -0.537015, 32.093063, -38.239441, 32.453766
1648228442.352407, 1.747318, -9.572467, -2.996493, 0.416109, 0.935629, -0.458084, 32.972427, -39.060791, 32.572083
1648228442.385733, 1.444452, -9.665392, -1.644068, 0.199010, -0.189651, -0.327485, 33.793060, -39.770004, 32.934830
1648228442.419105, 0.970998, -7.740454, -0.370503, 0.271847, -1.080134, -0.558974, 34.136139, -40.254486, 33.848068
1648228442.452384, 0.096666, -5.762394, -1.283292, 0.222523, -0.922861, -0.871590, 34.808640, -40.886490, 34.793289
1648228442.485783, -1.291522, -5.959916, -1.525855, 0.146859, -1.145448, -0.902300, 36.177826, -41.802811, 36.141983
1648228442.519080, -1.829918, -6.476166, -1.688660, 0.192833, -0.997390, -0.840687, 36.984543, -42.616302, 37.178970
1648228442.551784, -1.646911, -8.037036, -1.750311, 0.219413, -0.654484, -0.962295, 38.010910, -43.211777, 37.772797
1648228442.585720, -1.633444, -8.687361, -2.026692, 0.186996, -0.494003, -0.897528, 39.259476, -43.841141, 38.536072
1648228442.619082, -1.046715, -8.836699, -2.025644, 0.162402, -0.387851, -0.683077, 40.636917, -44.615356, 39.294159
1648228442.652389, -0.736217, -10.308684, -1.263540, 0.130041, -0.421151, -0.499739, 41.673431, -45.161392, 39.685516
1648228442.685721, -0.703746, -10.673052, -1.478270, 0.076951, -0.773964, -0.441071, 42.185318, -45.609940, 40.136353
1648228442.719059, -1.202189, -10.829124, -1.847127, 0.155452, -0.731605, -0.424860, 42.627319, -46.034790, 40.990585
1648228442.752408, -1.459715, -10.833613, -1.692102, 0.133685, -0.474132, -0.301635, 43.213638, -46.415634, 41.495300
1648228442.785718, -0.790685, -11.037719, -1.560720, 0.230882, -0.330570, -0.142822, 43.445831, -46.533691, 41.605515
1648228442.819054, -0.600945, -13.282432, -0.126444, 0.139865, -0.337032, 0.314811, 42.902542, -46.786499, 42.505585
1648228442.852388, 0.251242, -14.036456, -0.464475, 0.162123, 0.179094, 0.637672, 41.694656, -46.640900, 42.892288
1648228442.885725, 0.381426, -11.789498, -0.791733, 0.100607, 0.690927, 0.692871, 40.528381, -46.447845, 42.657028
1648228442.919056, 0.946907, -11.125406, -0.245256, -0.236787, 1.468485, 0.779811, 39.101181, -46.187714, 41.842545
1648228442.952403, 1.254861, -10.851420, -0.048034, -0.411288, 1.672259, 0.953517, 37.483200, -45.617004, 39.977463
1648228442.985720, 1.828422, -10.529100, -1.293916, -0.375578, 1.411589, 1.151623, 36.055176, -44.840668, 38.607727
1648228443.019110, 1.380257, -9.016264, -1.083676, -0.439005, 0.828666, 1.214525, 34.045151, -44.070999, 37.236542
1648228443.052387, 0.781557, -7.250989, -0.663643, -0.528925, 0.299903, 1.215074, 31.653152, -42.921570, 35.813919
1648228443.085729, 0.098761, -6.569989, -0.273388, -0.618430, 0.172829, 1.233093, 29.755539, -41.775146, 34.498047
1648228443.118968, -0.508917, -6.939444, -0.385616, -0.596780, -0.014074, 1.304022, 27.806122, -40.569107, 33.933960
1648228443.152218, -1.399411, -7.861361, -0.397288, -0.449517, -0.242388, 1.324499, 25.188080, -38.864014, 32.779587
1648228443.185656, -2.521693, -8.473379, -0.352397, -0.314785, -0.498825, 1.111993, 23.380478, -37.517349, 32.816284
1648228443.218904, -3.408146, -7.643190, -0.655413, -0.248250, -0.532901, 0.703372, 21.885605, -36.528702, 32.772537
1648228443.252214, -3.218854, -7.669825, -1.185878, -0.176543, 0.096096, 0.407014, 21.213181, -35.899796, 32.567673
1648228443.285547, -2.454206, -8.892664, -1.050905, -0.237236, 0.479188, 0.493053, 20.358826, -35.152573, 31.854279
1648228443.318853, -2.138471, -9.486126, -1.540070, -0.212065, -0.001854, 0.450911, 19.813263, -34.384415, 30.797379
1648228443.352136, -3.666121, -11.146505, -1.750910, 0.013264, -0.760284, 0.002263, 19.490982, -34.113327, 31.392319
1648228443.385496, -4.075530, -10.579678, -1.618181, 0.023445, -0.419903, -0.520072, 19.873703, -34.594635, 32.250137
1648228443.419064, -3.961207, -16.889596, -2.032378, 0.426068, -0.446087, -0.033530, 19.782654, -34.783737, 32.581345
1648228443.452395, -5.491251, -14.369549, -4.379593, 0.853978, -0.311520, -0.730697, 20.533218, -35.743622, 34.292984
1648228443.485732, -1.269376, -8.339304, -4.009390, 0.691154, 0.806942, -0.521604, 22.145844, -36.935318, 34.734787
1648228443.519061, 1.038784, -8.622119, -0.824952, 0.341715, 0.693026, -0.135637, 22.668732, -37.003067, 34.558884
1648228443.552410, -0.077961, -10.122236, -1.169717, 0.265073, -0.281225, -0.510456, 23.272552, -37.438629, 34.627289
1648228443.585748, -0.343418, -8.947880, -1.296460, 0.342865, -1.194759, -1.247639, 24.582794, -38.576477, 35.974548
1648228443.619093, -0.674117, -8.010550, -1.463605, 0.120761, -1.227940, -1.504115, 26.700806, -40.093948, 37.758621
1648228443.652459, -1.376217, -7.574057, -1.314716, -0.065783, -0.973505, -1.433769, 28.917892, -41.531631, 38.470810
1648228443.685734, -2.020856, -7.698406, -1.047463, -0.035532, -0.750148, -1.113721, 30.374115, -42.297012, 38.785782
1648228443.719077, -1.925237, -8.348282, -0.947056, 0.004468, -0.795289, -0.985167, 32.427063, -43.274796, 39.584381
1648228443.752405, -1.883489, -8.411429, -1.121235, 0.049325, -0.779643, -0.773011, 33.492920, -43.878662, 39.759079
1648228443.785737, -2.250849, -8.151209, -0.986710, 0.041830, -0.505434, -0.517335, 34.208221, -44.128540, 40.216751
1648228443.819063, -2.039112, -7.723545, -1.057788, 0.035599, -0.368573, -0.476725, 35.244827, -44.767059, 40.421631
1648228443.852397, -1.539472, -8.622568, -0.891092, -0.000311, -0.407602, -0.357806, 35.875793, -45.009827, 40.800629
1648228443.885744, -1.444003, -9.705345, -0.941221, -0.035454, -0.362792, -0.267366, 36.158218, -44.885605, 40.424561
1648228443.918822, -1.522563, -10.787824, -1.248576, -0.002918, -0.225920, -0.182785, 36.477448, -45.113480, 40.657486
1648228443.952400, -0.719757, -10.742484, -1.495329, 0.030908, -0.152454, -0.232742, 36.824341, -45.224609, 40.160065
1648228443.985137, -0.140360, -11.105953, -1.144279, 0.046082, -0.116526, -0.038648, 36.929947, -45.348953, 40.135086
1648228444.019072, -0.763750, -13.782371, -0.482432, 0.120136, -0.171053, 0.324527, 36.884766, -45.447144, 40.557083
1648228444.052401, -0.743400, -14.458733, -0.323516, 0.165815, -0.056584, 0.466879, 35.682388, -45.163834, 40.349503
1648228444.085756, -0.817770, -11.108497, -1.246032, 0.175672, 0.319366, 0.332158, 34.985794, -45.083572, 40.703033
1648228444.119122, -0.941819, -10.325144, -1.012298, 0.029812, 1.375688, 0.414841, 34.844070, -45.014053, 39.775696
1648228444.152399, -0.289249, -10.276063, -0.573860, -0.094828, 1.756633, 0.490863, 34.088226, -44.507416, 38.045074
1648228444.185732, 1.093851, -10.143484, -0.711976, -0.135501, 1.747426, 0.547917, 33.806808, -44.355820, 36.860428
1648228444.219070, 1.698836, -8.875904, -0.802058, -0.293244, 1.102492, 0.713195, 33.074600, -43.737976, 35.174103
1648228444.252474, 1.037138, -8.222287, -0.063895, -0.539087, 0.668959, 0.741432, 32.044754, -43.022614, 33.423019
1648228444.285747, -0.190638, -7.100454, -0.151433, -0.642854, 0.599039, 0.692990, 31.221024, -42.366196, 32.060135
1648228444.319086, -0.253935, -7.487417, -0.099808, -0.531243, 0.752130, 0.910964, 30.258484, -41.526947, 30.330780
1648228444.352403, -0.514155, -8.907478, -0.135123, -0.483685, 0.570175, 0.999916, 29.246277, -40.587189, 29.266327
1648228444.385736, -0.501136, -8.942942, -0.544681, -0.383548, 0.036689, 0.911024, 27.644424, -39.539276, 28.009857
1648228444.419081, -0.575357, -8.389582, -0.848445, -0.274116, -0.347920, 0.791463, 26.348251, -38.762497, 27.534729
1648228444.452414, -1.228974, -8.837298, -1.013944, -0.214682, -0.398057, 0.695446, 25.079102, -38.266495, 27.891373
1648228444.485744, -2.230049, -10.096199, -1.472284, -0.118109, -0.325512, 0.541425, 23.538742, -37.473190, 27.494400
1648228444.519124, -2.632425, -10.508301, -1.707066, 0.015022, -0.325866, 0.238695, 22.875519, -37.370789, 27.598053
1648228444.552400, -2.726846, -9.846903, -1.665915, -0.037488, -0.105287, -0.274279, 22.834427, -37.595566, 28.136963
1648228444.585242, -2.641253, -9.838373, -1.476624, -0.129171, 0.286069, -0.278530, 23.183563, -37.851608, 27.405258
1648228444.619145, -3.260603, -13.788357, -2.160917, -0.030817, 0.115372, -0.328215, 23.625229, -38.192078, 27.117554
1648228444.652402, -2.088043, -13.875446, -3.227384, 0.255548, -0.093465, -0.666551, 24.337830, -38.873917, 27.646347
1648228444.685739, -0.797269, -9.622596, -3.238457, 0.261167, 0.158241, -0.732240, 25.394699, -39.659332, 27.823486
1648228444.719100, 0.061800, -7.108983, -2.096124, 0.148574, 0.604298, -0.493358, 26.743164, -40.565735, 27.862656
1648228444.752402, 0.602740, -9.188946, -1.225831, 0.040523, 0.156734, -0.016615, 27.063721, -40.743729, 27.769577
1648228444.785738, 0.377536, -10.617237, -1.492934, 0.055436, -0.696188, -0.248362, 27.012695, -41.046402, 27.914291
1648228444.819073, -0.807744, -8.514230, -1.933168, 0.065462, -0.888605, -0.508419, 27.241135, -41.504761, 29.140671
1648228444.852402, -1.343147, -7.602638, -2.130391, 0.067481, -0.470924, -0.446869, 27.496323, -41.840958, 29.770630
1648228444.885760, -1.461510, -8.595034, -2.126799, 0.042998, 0.169754, -0.172610, 27.751160, -42.055359, 29.725067
1648228444.919073, -1.153257, -10.283096, -2.111686, 0.156593, 0.102963, -0.196283, 28.112152, -42.321167, 30.028046
1648228444.952465, -0.609773, -9.681254, -2.322525, 0.215418, -0.130863, -0.227187, 28.334061, -42.705750, 30.499832
1648228444.985736, -1.225532, -8.768614, -2.511667, 0.204685, 0.077682, -0.242689, 28.684082, -42.931580, 30.795258
1648228445.019069, -1.089811, -7.815422, -2.021604, 0.164202, 0.684113, -0.143105, 28.902695, -43.082092, 30.730438
1648228445.052422, -0.142904, -8.275708, -1.310975, 0.110365, 1.038015, 0.040197, 29.832626, -42.927689, 29.874771
1648228445.085743, 0.341922, -9.572766, -1.258003, 0.160917, 0.361346, 0.193119, 29.889267, -43.043533, 29.788818
1648228445.119089, 0.133626, -11.789199, -1.161487, 0.218458, -0.337319, 0.381185, 29.413208, -42.691925, 29.860443
1648228445.152418, -1.971326, -12.946346, -1.124377, 0.158368, -0.429169, 0.247839, 28.448715, -42.361298, 30.455536
1648228445.184793, -2.082806, -9.485528, -1.933318, 0.125655, 0.064079, -0.121697, 28.175598, -42.371078, 30.871353
1648228445.219079, -1.794903, -7.731476, -1.472584, 0.082332, 0.853626, -0.258144, 29.045303, -42.438156, 30.723999
1648228445.252412, -1.024269, -8.295161, -0.034716, -0.038777, 1.046938, -0.109457, 29.768356, -42.345459, 29.446198
1648228445.285747, -0.261118, -9.310152, 0.061800, -0.021018, 0.908889, 0.054727, 30.174301, -42.383057, 28.803024
1648228445.319095, 0.137068, -10.416723, -0.311994, 0.044119, 0.262724, 0.245625, 30.259094, -42.142395, 28.374451
1648228445.352411, -0.560094, -10.772261, -0.541389, 0.053507, -0.033626, 0.211803, 29.793716, -42.031754, 28.852829
1648228445.385760, -0.944662, -9.951350, -0.724845, 0.066946, 0.135999, -0.000518, 29.776779, -42.013016, 28.822662
1648228445.419073, -0.718260, -9.137171, -0.839018, 0.064014, 0.477473, -0.105546, 30.394714, -41.979843, 28.349731
1648228445.452410, -0.369605, -9.472809, -0.367211, 0.049141, 0.465952, -0.090002, 30.642303, -42.115784, 28.185806
1648228445.485747, -0.257077, -9.834782, -0.193781, 0.022841, 0.203172, -0.081582, 31.146896, -42.399857, 27.826385
1648228445.519077, -0.353444, -9.725397, -0.368258, 0.032211, -0.090766, -0.002519, 31.129639, -42.430878, 27.937271
1648228445.552450, -0.909497, -10.048764, -0.522235, 0.049414, -0.229813, -0.001846, 31.018799, -42.262634, 28.270432
1648228445.585769, -1.294216, -10.026767, -1.000926, 0.048572, -0.155867, -0.076047, 30.914780, -42.436127, 28.519623
1648228445.619091, -1.148469, -9.627534, -1.200542, 0.055904, 0.210960, -0.123399, 31.149261, -42.573090, 28.409256
1648228445.652480, -0.861613, -9.637709, -0.989853, 0.030855, 0.242116, -0.135682, 31.472809, -42.744965, 28.731888
1648228445.685743, -0.474202, -9.854684, -0.739808, 0.029647, 0.077835, -0.119441, 31.647629, -42.803329, 28.335037
1648228445.719079, -0.523582, -9.954342, -0.743998, -0.010274, -0.145450, -0.077417, 31.868683, -42.892197, 28.501144
1648228445.752476, -0.781408, -9.859622, -1.016339, -0.009465, -0.191222, -0.069460, 31.970932, -42.879044, 28.265228
1648228445.785746, -0.916530, -9.702951, -1.091906, -0.027882, -0.178641, -0.108458, 32.046646, -43.031723, 28.913498
1648228445.819087, -0.647931, -9.932794, -1.036839, -0.075764, -0.171575, -0.152693, 32.142090, -43.131256, 28.754410
