SamplingTime, AccelerationX, AccelerationY, AccelerationZ, GyroX, GyroY, GyroZ, MagneticFieldX, MagneticFieldY, MagneticFieldZ
1648228479.780829, -1.298555, -9.792285, -1.057339, -0.021431, 0.003914, -0.006083, 64.746109, -49.378159, 50.159424
1648228479.814134, -1.527351, -9.607931, -1.064821, 0.012030, 0.053293, 0.005373, 64.598526, -49.529556, 50.314117
1648228479.847452, -1.407192, -9.700557, -1.079785, -0.011402, 0.074744, -0.008080, 64.664825, -49.360229, 50.181244
1648228479.880823, -1.389385, -9.575161, -1.082778, 0.001331, 0.131528, -0.003333, 64.512527, -49.343765, 50.473709
1648228479.914142, -1.276259, -9.673323, -0.962170, 0.005447, 0.100987, 0.002746, 64.509140, -49.414108, 50.375854
1648228479.947466, -1.126771, -9.674969, -1.000028, -0.004867, 0.042203, -0.013272, 64.605835, -49.473007, 50.496750
1648228479.980819, -1.323844, -9.674370, -1.096694, 0.003015, 0.021914, -0.015159, 64.537521, -49.479019, 50.395172
1648228480.013668, -1.506851, -9.602993, -1.055993, 0.014345, 0.056697, -0.027765, 64.600876, -49.690338, 50.325882
1648228480.047465, -1.398513, -9.572318, -1.073500, 0.018075, 0.091059, -0.038708, 64.659134, -49.602951, 50.686188
1648228480.080798, -1.299902, -9.554511, -1.053898, 0.031969, 0.110579, -0.047210, 64.735214, -49.568176, 50.827423
1648228480.114171, -1.283591, -9.732729, -0.988057, 0.020361, 0.097278, -0.042313, 64.631866, -49.401566, 50.695068
1648228480.147472, -1.029507, -9.633519, -0.970549, 0.021439, 0.081729, -0.040661, 64.708862, -49.366653, 50.960510
1648228480.180802, -1.204283, -9.834782, -0.804901, 0.004067, -0.020430, -0.019088, 64.654358, -49.469757, 51.010422
1648228480.214128, -1.334019, -9.784803, -0.738312, -0.011722, -0.066897, -0.016351, 64.881668, -49.662170, 50.950302
1648228480.247464, -1.654693, -9.867553, -0.699705, -0.044748, -0.029950, -0.046113, 64.735535, -49.392426, 50.845245
1648228480.280794, -1.767819, -9.963171, -0.665438, -0.055723, -0.051575, -0.070818, 64.993042, -49.655121, 50.707901
1648228480.314180, -2.076222, -10.125528, -0.645387, -0.072366, -0.016146, -0.112940, 65.139282, -49.317886, 50.468430
1648228480.347463, -2.235436, -9.789292, -0.779163, -0.072710, 0.149055, -0.168730, 65.318054, -49.280472, 50.250946
1648228480.380794, -2.042104, -9.293692, -0.746093, -0.048855, 0.335975, -0.163186, 65.733963, -49.104355, 50.637878
1648228480.414143, -1.374870, -9.087941, -0.449811, -0.090632, 0.433972, -0.183497, 65.963531, -49.005066, 50.416031
1648228480.447464, -0.680701, -9.115923, -0.289549, -0.153914, 0.223002, -0.050944, 65.983246, -49.081650, 50.500870
1648228480.480843, -0.549769, -9.257480, -0.034866, -0.217551, -0.056024, -0.024790, 65.926895, -49.010239, 50.236343
1648228480.514172, -0.820313, -9.069386, -0.090381, -0.317930, -0.282031, -0.022086, 66.043167, -48.825592, 49.471725
1648228480.547477, -0.986860, -8.681375, -0.573411, -0.342963, -0.247936, -0.057617, 66.095276, -48.885925, 48.414551
1648228480.580803, -0.775572, -8.368333, -1.310376, -0.326667, -0.258205, 0.013721, 66.189255, -48.740341, 48.038284
1648228480.614141, -1.881843, -11.072135, -1.973421, -0.156538, -0.410630, 0.180248, 65.979462, -48.737457, 47.627014
1648228480.647476, -3.000234, -11.909956, -2.154781, -0.025127, -0.691443, -0.104556, 66.011978, -48.503464, 47.259262
1648228480.680799, -2.521843, -10.536882, -2.981080, 0.207119, -0.331476, -0.338329, 66.526184, -48.330429, 47.214798
1648228480.714132, -2.620304, -10.011654, -2.429067, 0.211424, -0.077742, -0.355636, 67.277863, -48.140030, 47.604080
1648228480.747021, -2.013973, -8.769961, -1.743128, 0.084825, -0.031481, -0.416152, 67.696533, -47.641144, 47.785553
1648228480.780804, -1.608604, -7.631667, -1.685817, 0.011468, -0.269605, -0.451439, 68.654419, -47.504959, 47.826614
1648228480.814135, -1.825878, -7.651120, -1.744026, -0.013010, -0.491138, -0.457850, 69.368958, -47.343506, 48.113129
1648228480.847182, -2.333898, -8.333617, -2.164957, 0.012883, -0.567091, -0.439428, 70.111786, -46.961411, 47.890793
1648228480.880804, -2.772336, -8.962844, -2.532317, 0.028124, -0.284512, -0.488948, 70.893585, -46.668442, 47.554688
1648228480.913980, -2.706196, -9.366416, -2.605191, 0.053874, 0.041234, -0.528796, 71.849075, -46.278259, 47.504654
1648228480.947464, -1.975665, -9.332598, -2.211045, 0.076704, 0.081994, -0.562047, 72.766129, -45.741684, 47.978516
1648228480.980431, -1.718738, -9.425673, -1.960552, 0.048695, -0.230924, -0.557353, 73.475204, -45.390579, 48.113647
1648228481.014135, -1.795801, -10.066571, -2.125752, 0.093604, -0.366606, -0.419079, 74.439392, -45.166245, 48.019791
1648228481.047468, -2.027889, -11.059266, -2.398092, 0.181101, -0.268004, -0.333475, 75.076202, -44.735153, 48.203812
1648228481.080844, -1.479168, -11.527931, -2.619855, 0.308934, -0.134495, -0.248360, 75.760864, -44.613083, 48.665543
1648228481.114135, -1.000477, -13.216741, -2.153435, 0.319701, 0.043317, -0.104988, 75.989304, -44.531448, 49.161087
1648228481.147470, -0.093524, -13.072491, -1.378162, 0.335103, 0.447329, 0.006789, 75.903534, -44.189499, 49.645203
1648228481.180803, 1.152210, -10.767174, -1.429937, 0.282945, 0.922941, 0.171381, 75.563782, -44.140411, 50.919388
1648228481.214132, 1.373374, -9.692327, -0.468964, 0.020710, 0.969295, 0.420591, 74.979248, -44.466095, 51.409256
1648228481.247472, 1.117793, -9.628731, 0.231489, -0.132928, 0.889132, 0.696250, 73.912888, -44.644669, 51.818054
1648228481.280818, 0.824204, -9.081955, -0.187646, -0.144712, 0.741836, 0.887892, 72.058258, -45.282455, 51.651917
1648228481.314137, 0.233435, -9.077616, -0.517447, -0.204391, 0.536903, 1.159693, 70.240204, -45.759140, 51.628601
1648228481.347525, -0.267103, -9.264663, -0.495600, -0.253805, 0.394813, 1.283937, 68.413437, -46.283218, 50.897949
1648228481.380800, -0.724396, -9.111434, -0.400730, -0.335809, 0.349808, 1.204594, 65.711105, -46.821503, 50.288071
1648228481.414145, -0.839168, -8.530092, -0.579397, -0.354656, 0.398979, 1.015478, 64.024063, -47.262268, 49.976974
1648228481.447488, -1.185579, -7.980173, -0.781557, -0.314510, 0.506551, 0.885609, 62.522049, -47.405243, 49.242111
1648228481.480805, -1.460313, -7.706935, -0.531513, -0.322865, 0.559418, 0.769717, 60.601471, -47.495346, 48.620529
1648228481.514171, -1.395371, -7.629722, -0.433351, -0.334602, 0.469032, 0.711547, 59.526184, -47.770874, 48.058105
1648228481.547486, -1.466299, -7.669975, -0.422876, -0.354344, 0.188386, 0.606499, 58.601562, -47.734329, 47.163132
1648228481.580867, -1.721730, -7.853430, -0.361674, -0.429875, 0.100957, 0.538513, 57.884476, -48.059143, 46.577728
1648228481.614140, -2.355446, -8.686613, -0.644938, -0.400873, 0.132560, 0.470179, 57.035492, -48.070770, 45.549332
1648228481.647468, -2.813486, -10.331878, -0.801609, -0.070661, -0.626173, 0.394212, 56.465714, -47.997330, 45.090256
1648228481.680809, -5.133917, -13.152098, -1.146523, 0.076725, -1.083870, -0.194226, 56.311401, -47.859924, 45.097885
1648228481.714148, -3.433435, -11.989414, -2.361581, 0.233905, -0.677216, -0.485385, 57.637970, -48.065140, 45.332657
1648228481.747475, -2.830695, -13.324780, -2.480991, 0.471217, -0.163636, -0.126669, 57.894241, -48.282394, 45.785309
1648228481.780854, -2.439392, -13.492972, -2.171242, 0.524814, -0.210905, -0.276084, 58.704071, -48.037369, 46.191635
1648228481.814142, -1.251419, -10.772710, -2.580500, 0.510040, -0.568965, -0.517976, 59.472443, -48.023941, 47.395645
1648228481.847477, -0.287603, -9.287557, -2.833987, 0.335835, -0.139186, -0.680054, 60.595047, -48.059341, 47.541183
1648228481.880855, -0.958130, -8.583512, -2.206107, 0.049845, 0.397120, -0.796744, 61.908112, -47.967758, 47.786438
1648228481.914220, -0.575357, -8.353819, -0.833332, -0.010795, 0.243702, -0.893362, 63.292435, -47.794678, 47.708984
1648228481.947477, -0.241216, -8.583662, -0.783951, -0.042729, -0.356006, -1.049479, 65.487671, -47.546967, 47.099564
1648228481.979956, -0.642245, -7.643489, -0.854880, -0.057299, -0.699118, -1.045258, 67.585358, -47.368820, 46.826050
1648228482.014152, -1.523161, -6.693290, -0.791433, -0.016022, -0.790836, -0.955127, 69.055511, -47.227295, 46.504959
1648228482.047532, -1.404199, -7.260417, -0.949451, 0.001790, -0.794912, -0.887396, 71.089966, -46.407516, 45.700241
1648228482.080827, -1.190816, -8.142530, -1.409886, -0.054373, -0.840946, -0.710106, 72.476196, -46.130157, 44.789841
1648228482.114228, -2.162563, -8.438663, -1.735796, 0.022971, -0.601933, -0.559948, 73.513718, -45.968338, 44.432510
1648228482.147516, -2.212093, -8.103325, -1.689259, 0.082285, -0.172860, -0.666474, 74.743912, -45.660355, 43.922577
1648228482.180816, -0.957531, -8.423550, -1.821389, 0.190334, 0.074545, -0.575167, 75.777130, -45.575607, 44.008591
1648228482.213725, -0.885106, -9.613917, -1.168670, 0.138083, -0.085522, -0.400463, 76.264084, -45.518280, 44.153183
1648228482.247471, -0.322319, -10.952724, -1.111658, 0.146955, -0.255233, -0.175774, 76.705673, -45.449524, 44.108429
1648228482.280827, -0.321422, -12.136059, -1.316512, 0.226234, -0.464915, 0.036689, 76.589371, -45.502609, 43.956131
1648228482.314163, -0.128239, -12.835165, -1.607706, 0.338796, -0.909456, 0.138244, 76.356262, -45.891907, 43.844437
1648228482.347096, -0.934786, -14.833426, -0.838270, 0.281112, -1.172371, 0.306509, 75.708984, -46.148041, 43.300934
1648228482.380822, -2.206855, -12.564920, -1.350330, 0.160398, 0.156760, 0.263873, 74.816254, -46.673187, 43.059830
1648228482.414176, -0.725144, -9.640552, -1.214608, 0.059239, 1.544518, 0.472162, 74.080231, -46.671600, 43.362823
1648228482.447481, 0.085443, -11.518055, 0.360776, -0.222202, 2.017576, 0.749218, 72.817474, -47.294846, 44.323853
1648228482.480811, 0.527622, -11.464335, 0.149488, -0.335946, 1.878799, 0.943362, 70.697266, -47.820877, 45.177200
1648228482.514141, 0.643891, -10.541221, -0.444723, -0.390491, 1.543618, 1.087950, 68.590118, -48.255585, 45.115417
1648228482.547479, 0.339378, -8.460809, -0.898574, -0.461406, 1.320603, 1.100375, 66.504379, -48.533829, 44.875366
1648228482.580868, 0.105345, -7.135619, -0.536750, -0.546986, 1.246931, 1.146014, 63.798599, -48.897278, 44.307693
1648228482.614146, -0.184204, -6.472425, -0.036362, -0.714534, 1.037388, 1.160298, 61.740631, -48.946503, 43.512848
1648228482.647484, -0.647332, -6.392369, -0.002993, -0.765520, 0.671339, 1.071687, 59.497330, -49.064224, 42.451035
1648228482.680817, -1.132457, -6.921637, -0.251840, -0.689612, 0.128240, 0.949526, 57.810913, -49.224243, 41.141251
1648228482.714168, -1.952771, -7.186047, -0.455647, -0.443749, -0.455921, 0.475150, 55.844452, -48.607758, 39.890564
1648228482.747494, -2.669236, -6.913557, -0.646285, -0.278569, -0.901168, -0.175552, 55.530685, -48.606033, 39.003174
1648228482.780820, -2.031630, -8.210316, -1.485452, -0.092698, -0.814280, -0.133424, 55.474060, -48.348358, 38.916351
1648228482.814163, -2.745700, -10.186879, -1.030405, -0.116482, -0.226123, 0.234153, 54.859879, -48.207794, 38.552460
1648228482.847529, -3.864541, -12.414085, -1.367987, -0.044275, -0.014986, -0.004537, 54.343674, -47.924484, 38.427567
1648228482.880905, -2.767547, -12.250531, -2.348712, 0.100393, -0.066861, -0.287862, 54.644470, -47.832199, 38.939148
1648228482.914222, -1.747468, -14.828787, -2.422932, 0.505981, -0.665571, -0.224043, 54.857742, -47.462860, 39.579529
1648228482.947493, -2.951452, -14.735862, -2.798373, 0.628596, -1.066573, -0.697296, 55.490494, -47.544037, 40.386948
1648228482.980817, -1.881543, -10.100987, -4.881029, 0.997032, 0.065375, -1.023594, 56.964569, -47.379044, 42.328003
1648228483.014179, 0.812981, -8.163928, -3.040038, 0.743594, 1.392395, -0.577237, 58.111115, -47.078690, 44.281601
1648228483.047557, 2.042104, -8.906281, -1.666813, 0.400292, 0.846693, -0.173920, 59.149826, -46.803055, 45.255310
1648228483.080819, 2.549675, -9.869947, -0.092177, 0.440111, -0.796590, -0.372661, 59.444122, -46.479828, 46.334641
1648228483.114158, 0.622792, -9.185055, -0.868048, 0.269740, -1.599909, -0.620013, 60.546295, -46.230331, 46.572403
1648228483.147482, -1.391630, -7.504475, -1.780388, 0.211703, -1.018060, -1.013188, 62.333176, -45.649124, 47.009537
1648228483.180842, -1.518522, -6.004957, -1.508646, 0.236687, -0.635598, -0.990179, 63.973129, -45.166016, 46.922058
1648228483.214149, -1.036390, -6.800431, -0.628927, 0.152412, -0.636325, -0.797865, 65.180908, -44.817871, 47.179733
1648228483.247487, -1.357512, -7.640047, -0.660351, 0.122477, -0.909707, -0.715111, 66.793137, -44.067459, 47.372528
1648228483.280865, -1.778593, -8.005013, -0.805649, 0.098195, -1.007253, -0.625064, 68.191879, -43.612122, 46.914642
1648228483.314155, -2.119168, -8.403199, -1.395670, 0.119184, -0.706847, -0.416593, 68.597122, -43.092407, 47.049805
1648228483.347496, -2.129343, -9.751733, -1.062577, 0.155797, -0.394486, -0.196834, 69.179855, -42.741837, 46.873337
1648228483.380825, -1.836203, -11.069292, -0.990302, 0.130459, -0.446950, -0.164541, 69.596100, -42.243240, 47.450851
1648228483.414160, -2.203863, -12.347796, -1.492037, 0.170024, -0.324348, -0.195453, 69.934128, -41.814102, 47.488571
1648228483.447497, -1.874660, -12.322357, -1.604863, 0.226780, -0.090119, -0.217123, 70.433197, -41.377701, 47.483948
1648228483.480820, -0.743549, -12.877663, -0.759860, 0.217823, -0.015217, -0.072868, 70.911240, -40.763809, 48.192383
1648228483.514157, 0.778864, -13.514071, 0.314688, 0.089366, -0.173278, 0.171453, 70.855164, -40.680893, 48.371872
1648228483.547492, 0.457891, -11.459248, 0.236876, -0.138528, -0.129549, 0.393104, 70.672256, -40.622299, 48.623749
1648228483.580835, -0.060304, -10.033201, -0.291494, -0.270215, 0.191334, 0.500153, 69.979630, -40.587982, 48.006180
1648228483.614196, -0.774225, -10.837803, -0.320823, -0.441304, 0.743996, 0.602375, 69.608047, -40.754517, 47.843018
1648228483.647502, -0.519093, -10.906486, -0.670975, -0.450369, 1.219633, 0.729763, 68.866409, -40.923981, 47.821228
1648228483.680821, -0.252588, -10.934618, -0.796072, -0.411596, 1.247382, 0.814266, 67.572266, -41.097855, 47.633194
1648228483.714157, 0.191386, -9.916035, -0.774674, -0.430947, 0.936620, 0.890643, 66.646255, -41.633102, 47.602478
1648228483.747485, -0.000150, -7.709629, -0.661099, -0.440255, 0.694994, 0.913555, 65.788116, -41.830811, 47.097626
1648228483.780817, -0.272640, -6.777686, -0.304513, -0.493065, 0.668044, 0.894164, 64.665909, -42.273438, 46.829010
1648228483.814154, -0.525378, -6.589591, -0.220865, -0.539449, 0.710732, 0.892965, 63.096359, -42.563004, 45.842682
1648228483.847486, -0.755820, -6.752397, -0.518195, -0.517812, 0.590586, 0.882322, 61.969116, -42.731308, 45.548752
1648228483.880274, -0.984765, -6.793846, -0.638653, -0.464925, 0.293958, 0.776527, 61.098206, -42.820679, 44.822418
1648228483.914165, -1.284489, -6.905626, -0.762553, -0.444563, 0.004767, 0.539577, 60.281479, -42.771194, 44.156250
1648228483.947494, -1.687463, -8.185177, -0.898275, -0.346654, -0.010788, 0.440140, 59.900360, -43.200241, 43.841141
1648228483.980841, -2.040608, -9.428665, -0.692224, -0.282150, -0.128406, 0.476284, 59.376114, -43.203094, 43.449768
1648228484.014154, -3.023727, -11.157429, -0.859518, -0.178184, -0.764872, 0.334757, 59.048141, -43.345947, 42.757828
1648228484.047489, -4.660613, -12.187684, -1.776947, 0.046440, -1.080337, -0.172879, 59.237961, -43.574615, 42.834427
1648228484.080844, -4.994155, -14.558841, -2.333748, 0.343639, -1.100849, -0.595430, 60.107468, -43.696335, 43.294830
1648228484.114162, -4.840477, -14.244004, -3.424756, 0.603033, -0.834552, -1.030075, 61.498383, -43.704315, 43.512650
1648228484.147500, -2.765752, -10.622025, -4.557662, 0.739616, 0.308242, -0.933705, 63.971207, -43.793198, 44.830765
1648228484.180827, 0.455347, -9.780613, -2.925714, 0.630493, 1.274469, -0.402438, 64.737213, -43.852951, 46.671814
1648228484.214164, 0.487220, -10.851569, -1.738939, 0.493064, 0.825460, -0.531076, 65.282135, -43.850388, 47.698288
1648228484.247521, -0.005088, -9.802460, -0.755670, 0.420742, -0.100549, -0.980705, 67.290756, -43.801697, 48.795029
1648228484.280834, 0.558747, -7.464522, -0.092027, 0.161964, -0.737934, -0.887977, 68.814529, -43.661240, 48.835373
1648228484.314183, -0.624438, -6.432472, -0.655862, -0.038280, -0.931817, -0.877612, 70.385834, -43.798813, 48.551651
1648228484.347496, -2.080262, -6.246921, -0.768688, -0.042431, -0.689601, -0.855956, 72.565338, -43.333511, 47.996582
1648228484.380832, -2.601899, -6.609942, -0.852336, 0.124668, -0.439217, -0.709628, 73.915451, -43.120773, 47.916412
1648228484.414211, -2.215983, -7.898172, -0.405668, 0.316845, -0.463641, -0.634021, 74.891479, -42.868454, 48.185730
1648228484.447508, -2.002450, -9.167997, -0.327407, 0.206838, -0.872831, -0.525996, 76.438919, -42.695862, 47.729370
1648228484.480839, -2.818424, -8.611644, -1.234660, 0.242599, -0.612467, -0.514480, 77.387970, -42.739517, 47.946350
1648228484.514177, -3.237709, -9.339781, -1.424550, 0.297909, 0.045728, -0.623660, 78.694443, -42.843765, 48.724197
1648228484.547515, -1.008109, -10.647015, -1.577031, 0.326356, 0.535965, -0.242449, 79.516632, -42.492966, 49.219650
1648228484.580841, 0.030526, -11.671583, -1.213112, 0.274693, 0.402265, 0.001227, 79.775894, -43.001892, 50.482925
1648228484.614167, 0.409558, -11.838130, -1.139191, 0.265418, -0.087704, 0.209118, 79.786362, -43.682632, 50.734818
1648228484.647509, 0.157868, -14.615404, -0.113874, 0.205212, -0.342679, 0.599853, 79.310867, -44.438126, 51.157120
1648228484.680838, -0.185551, -15.095292, 0.853683, 0.053053, -0.120468, 0.595914, 78.123184, -45.479294, 51.251236
1648228484.714195, -0.089483, -11.218331, 0.062698, -0.028542, 0.231805, 0.561618, 77.125137, -46.264496, 51.115219
1648228484.747505, -0.672322, -10.024522, -0.116268, -0.267436, 0.907518, 0.616038, 76.006042, -47.150238, 50.912140
1648228484.780837, -1.139939, -10.034398, 0.384269, -0.292387, 1.261286, 0.671328, 74.195526, -48.330353, 51.136612
1648228484.814172, -0.501585, -10.240150, 0.392200, -0.298978, 1.353316, 0.803667, 72.531433, -49.120544, 51.532028
1648228484.847508, -0.077213, -9.696666, 0.374393, -0.331828, 1.260310, 0.878391, 70.755386, -49.929062, 51.271927
1648228484.880845, -0.013318, -8.497620, 0.371101, -0.389740, 0.712326, 0.942878, 68.865250, -50.759094, 50.897018
1648228484.914178, -0.289249, -6.936301, 0.367959, -0.492184, 0.443667, 0.999269, 66.388168, -51.837448, 50.191803
1648228484.947559, -0.687585, -6.465093, 0.476147, -0.541879, 0.307873, 0.979449, 64.437912, -52.585281, 49.308960
1648228484.980848, -1.318457, -6.864924, 0.467917, -0.577848, 0.119678, 0.816986, 62.739273, -53.247879, 48.456146
1648228485.014180, -2.034323, -7.491457, 0.141258, -0.574657, -0.026376, 0.628220, 60.692978, -53.846542, 47.074326
1648228485.047512, -2.624644, -7.826047, -0.405368, -0.448252, -0.016775, 0.355776, 59.669037, -54.380646, 46.089233
1648228485.080846, -2.394052, -8.276755, -0.343269, -0.346755, 0.213313, 0.254061, 58.951721, -54.863190, 45.505676
1648228485.114180, -2.224363, -9.187599, -0.214131, -0.335069, 0.186655, 0.320324, 58.398788, -55.451004, 44.525024
1648228485.147515, -2.994398, -10.783185, -0.943166, -0.226915, -0.233813, 0.133230, 57.701172, -55.712860, 43.922424
1648228485.180847, -4.455310, -12.887688, -1.438167, 0.014018, -0.750687, -0.701381, 58.033615, -56.196793, 43.635101
1648228485.214191, -4.154090, -12.656498, -1.986140, 0.103836, -0.349333, -1.052991, 59.500458, -56.222855, 43.522812
1648228485.247515, -2.719364, -13.787160, -2.188899, 0.266591, -0.080529, -0.893803, 61.432587, -56.009903, 44.080658
1648228485.280589, -1.759738, -12.500725, -3.051560, 0.567223, -0.200895, -0.913836, 62.978897, -56.188828, 44.916412
1648228485.314172, -0.178368, -10.050859, -3.337517, 0.708152, 0.063540, -0.626230, 64.322342, -55.788727, 46.133575
1648228485.347513, 0.791733, -9.842114, -2.152537, 0.557491, 0.245335, -0.279105, 64.959091, -55.838211, 47.695358
1648228485.380841, 0.988207, -9.292794, -2.115128, 0.452191, -0.115681, -0.411695, 65.395309, -55.816116, 48.538879
1648228485.414174, 1.274164, -7.920618, -1.658882, 0.378035, -0.939032, -0.666434, 66.251938, -55.480545, 49.253082
1648228485.447528, -0.046687, -6.640169, -0.799364, 0.085278, -1.257819, -0.820458, 67.940842, -55.215149, 48.773148
1648228485.480871, -1.358859, -6.364686, -0.775272, -0.141072, -1.269299, -0.874183, 69.540161, -54.912155, 47.983002
1648228485.514178, -2.131588, -6.725163, -0.761805, -0.168440, -0.982333, -0.823699, 71.010254, -54.615540, 47.245377
1648228485.547525, -2.456900, -8.203882, -0.819864, -0.326508, -0.893923, -0.691425, 72.627380, -54.410339, 45.817963
1648228485.580893, -2.675221, -8.496722, -1.187374, -0.331644, -0.750064, -0.490499, 73.515396, -54.090073, 44.682602
1648228485.614181, -3.035997, -8.062624, -1.338957, -0.236914, -0.123961, -0.274656, 73.880432, -54.245010, 44.038452
1648228485.647575, -2.590975, -7.797915, -1.640776, -0.069360, 0.104582, -0.238504, 74.264282, -54.553146, 43.804153
1648228485.680850, -1.011700, -9.785701, -1.654992, 0.109062, -0.029418, -0.089210, 74.130997, -54.866913, 44.117798
1648228485.714183, -1.205630, -11.161170, -1.540968, 0.196564, -0.439374, 0.047616, 73.825256, -54.800110, 44.015717
1648228485.747068, -1.742530, -11.844714, -1.952023, 0.315621, -0.429199, 0.093802, 73.236435, -55.183578, 44.145325
1648228485.780845, -1.609951, -11.858630, -2.140865, 0.402716, -0.487306, 0.028431, 72.823563, -55.468292, 44.493179
1648228485.814241, -1.875109, -13.800478, -0.526425, 0.324665, -0.173087, 0.166323, 72.062912, -55.742813, 45.055252
1648228485.847516, -1.688062, -14.069676, 0.128988, 0.183893, 0.806218, 0.342064, 71.451447, -55.713699, 45.302124
1648228485.880845, 0.015862, -12.058397, 0.592415, 0.090889, 1.517482, 0.426910, 70.280518, -56.028595, 46.287628
1648228485.913549, 1.580173, -11.455806, 0.960225, -0.095702, 1.882471, 0.681158, 68.642517, -56.000107, 47.449158
1648228485.947519, 2.837279, -11.061960, 0.847547, -0.320616, 1.270428, 1.170072, 66.289810, -55.965729, 47.057220
1648228485.980853, 2.055721, -10.991481, 0.025438, -0.432280, 0.048132, 1.244714, 63.790680, -56.302200, 46.346115
1648228486.014186, -0.519841, -8.778939, -1.177349, -0.440590, -0.734005, 0.914233, 61.179825, -56.217133, 44.915268
1648228486.047522, -2.343923, -6.794595, -1.547253, -0.364655, -0.145804, 0.463082, 59.825287, -55.980392, 44.003235
1648228486.080850, -2.986767, -5.501277, -0.987309, -0.429978, 0.806418, 0.480002, 59.053864, -55.828781, 43.305328
1648228486.114180, -2.776675, -5.581183, 0.157269, -0.590058, 1.437290, 0.527845, 57.628876, -55.532288, 41.717361
1648228486.147503, -1.991677, -6.841132, 0.104297, -0.715466, 1.335345, 0.524162, 56.924164, -55.439026, 40.610199
1648228486.180918, -1.281496, -8.129212, -0.348506, -0.645228, 0.613285, 0.510102, 56.184052, -55.188248, 38.961258
1648228486.214189, -1.555184, -7.976582, -0.540641, -0.537165, -0.062448, 0.448141, 54.744324, -54.753128, 37.327148
1648228486.247594, -2.199224, -8.198794, -0.458041, -0.447645, -0.222998, 0.404541, 53.957352, -54.454468, 36.400620
1648228486.280859, -2.811840, -9.779266, -0.554557, -0.267291, -0.137825, 0.397781, 53.130371, -54.481003, 35.603348
1648228486.314183, -2.887856, -11.949760, -1.423503, -0.024095, -0.457143, 0.099157, 52.672699, -54.347229, 35.507294
1648228486.347517, -2.827403, -13.004555, -2.030133, 0.151901, -0.751294, -0.360070, 53.017914, -54.074539, 35.912796
1648228486.380853, -2.679261, -15.516222, -2.642151, 0.469725, -0.927596, -0.396566, 53.581177, -54.127594, 36.862747
1648228486.414216, -2.680309, -12.555343, -4.246715, 0.581342, -0.681259, -0.609253, 54.308273, -54.054108, 37.680328
1648228486.447522, -0.609324, -8.866627, -3.797802, 0.557717, 0.030182, -0.602282, 56.214844, -53.983627, 39.141602
1648228486.480853, 0.366014, -9.812785, -1.754351, 0.308269, 0.654816, -0.342224, 57.247452, -53.805374, 39.928009
1648228486.514202, -0.465223, -10.479570, -1.136198, 0.245395, -0.131002, -0.511416, 58.323547, -53.637741, 40.123337
1648228486.547528, 1.206678, -8.880543, -1.497723, 0.326077, -1.412586, -0.647360, 59.683319, -53.261124, 41.022659
1648228486.580862, -0.108936, -7.645584, -2.806603, -0.166260, -1.798194, -0.596242, 60.700653, -53.024979, 40.638123
1648228486.614193, -2.671929, -6.151602, -2.319832, -0.332790, -1.647906, -0.527347, 61.411804, -52.829239, 39.448502
1648228486.647523, -3.726874, -5.295525, -1.705719, -0.315776, -1.022641, -0.548089, 62.483414, -52.402237, 38.307114
1648228486.680872, -3.606865, -6.198738, -2.014421, -0.278347, -0.213868, -0.621578, 63.650742, -52.153061, 37.575439
1648228486.714206, -3.580529, -6.873005, -1.816750, -0.031347, 0.159635, -0.678451, 64.922485, -51.874237, 37.338867
1648228486.747518, -2.468123, -8.045864, -1.275361, 0.080310, 0.226240, -0.633237, 66.336014, -51.640106, 37.337021
1648228486.780873, -1.376516, -8.989180, -1.542016, 0.082328, 0.111183, -0.427532, 67.442078, -51.190643, 37.373611
1648228486.814189, -2.226159, -11.201422, -2.168698, 0.191937, -0.637562, -0.138720, 68.014740, -51.124054, 37.286942
1648228486.847520, -3.664326, -10.759991, -2.467225, 0.222492, -0.059154, -0.236538, 68.087646, -51.039993, 37.313644
1648228486.880853, -2.377293, -10.666468, -2.391359, 0.336670, 0.786267, -0.123106, 68.707474, -50.939545, 38.228439
1648228486.914191, -0.875829, -12.173618, -1.705869, 0.381421, 0.666742, 0.139815, 68.826599, -50.800705, 38.900330
1648228486.947527, -0.613813, -15.225177, -0.389956, 0.288536, 0.298684, 0.245595, 68.690887, -50.731079, 39.578232
1648228486.980862, -0.788441, -13.517363, -0.104746, 0.136659, 0.350650, 0.259056, 68.282272, -50.836121, 39.755569
1648228487.014192, -0.845901, -11.115380, -0.438887, -0.054050, 0.943559, 0.186856, 68.232941, -50.849945, 40.047104
1648228487.047521, -0.732775, -11.006145, 0.114622, -0.267274, 1.501855, 0.345867, 68.425430, -50.738083, 40.005249
1648228487.080250, -0.091877, -10.449942, -0.376488, -0.347317, 1.513216, 0.625568, 67.762833, -50.750824, 39.962952
1648228487.114194, -0.093524, -9.589526, -0.893037, -0.329716, 1.109091, 0.709852, 66.380630, -50.836304, 39.877777
1648228487.147533, -0.307056, -7.601291, -1.271321, -0.362328, 0.882063, 0.627187, 65.604309, -50.630829, 39.884735
1648228487.180862, -0.114173, -5.687576, -1.498022, -0.379375, 0.758092, 0.729378, 64.790665, -50.743042, 39.357712
1648228487.214197, 0.274435, -5.532701, -1.196951, -0.419329, 0.702968, 0.967559, 63.375031, -50.758453, 38.422745
1648228487.247529, -0.068684, -6.298247, -0.592415, -0.446564, 0.490173, 1.073238, 61.591797, -50.716553, 37.785339
1648228487.280853, -1.329530, -7.504326, -0.157269, -0.440832, 0.223127, 1.008766, 60.102921, -50.955276, 36.911713
1648228487.314205, -2.212841, -8.095993, -0.429310, -0.382889, -0.226882, 0.875790, 58.136505, -51.081909, 36.233551
1648228487.347531, -3.051260, -8.873809, -1.081730, -0.004184, -0.644134, 0.508063, 57.082825, -50.934235, 36.096024
1648228487.380892, -4.055329, -8.649802, -1.310526, 0.190446, -0.584221, 0.006264, 56.736877, -51.041077, 36.162308
1648228487.414199, -3.807978, -9.702652, -1.136198, 0.105526, -0.121527, -0.063299, 56.940491, -51.323257, 36.381485
1648228487.447566, -4.976947, -12.549208, -1.389236, 0.190657, 0.185233, -0.296985, 57.469254, -51.226578, 36.989334
1648228487.480865, -3.998766, -12.289437, -1.901894, 0.238802, 0.360924, -0.588552, 58.614777, -51.372803, 37.460968
1648228487.514256, -1.867627, -14.812926, -1.517625, 0.386081, 0.037139, -0.185332, 59.370834, -51.576523, 37.928802
1648228487.547525, -3.023428, -14.501231, -1.733252, 0.504870, -1.148725, -0.631706, 60.429535, -51.523392, 39.263245
1648228487.580865, -2.265663, -10.852766, -4.157232, 0.749749, -0.872939, -0.786595, 61.872391, -51.468552, 40.045715
1648228487.614173, 0.139163, -8.237849, -3.167379, 0.717171, 0.237637, -0.604594, 62.945007, -51.400284, 41.377914
1648228487.647533, 0.770035, -8.541464, -1.258153, 0.378240, 0.615698, -0.534021, 64.356171, -51.108459, 42.787521
1648228487.680863, 0.957681, -8.468291, -0.595558, 0.178642, -0.533469, -0.857665, 65.917740, -51.158005, 43.113358
1648228487.714193, 0.326809, -8.302343, -0.244957, 0.047172, -1.359190, -0.966096, 67.377319, -50.631546, 43.166946
1648228487.746841, -1.116895, -7.754969, -0.726491, -0.146593, -1.495191, -1.015864, 69.130005, -50.524673, 42.208130
1648228487.780410, -2.256834, -7.146991, -1.284190, -0.149242, -1.073206, -0.898044, 71.253571, -49.768356, 41.155167
1648228487.814259, -3.125481, -7.212981, -1.331625, -0.103065, -0.600973, -0.752003, 72.637299, -49.387680, 40.780807
1648228487.847540, -3.075053, -7.733870, -1.231368, 0.000173, -0.196605, -0.620840, 73.857727, -48.980011, 40.305313
1648228487.880858, -3.055450, -8.430283, -0.857872, 0.045474, 0.087503, -0.399367, 75.242233, -48.857117, 40.070023
1648228487.914241, -3.104382, -8.319551, -1.274763, 0.167191, 0.293045, -0.238669, 75.908630, -48.856384, 40.924042
1648228487.947547, -1.966986, -8.335563, -1.740136, 0.328353, 0.474886, 0.022358, 75.977783, -49.058411, 41.521347
1648228487.980867, -1.700332, -9.678710, -1.557727, 0.426537, 0.590629, 0.337356, 75.845734, -49.677658, 43.203796
1648228488.014212, -1.501464, -11.285967, -1.108665, 0.395022, 0.621634, 0.452763, 75.298416, -50.250961, 44.261871
1648228488.047532, -0.391602, -12.849680, -0.784849, 0.346591, 0.362235, 0.430613, 74.478424, -50.568680, 45.282486
1648228488.080866, -1.011550, -15.602414, 0.137667, 0.322939, -0.046806, 0.241506, 73.729385, -51.028366, 46.276825
1648228488.114236, -0.670825, -14.675558, 0.432602, 0.179598, 0.432061, 0.283140, 73.437302, -51.614319, 46.626556
1648228488.147533, -0.193033, -10.910527, -0.224756, 0.179306, 0.800881, 0.316974, 72.673691, -51.723541, 47.551300
1648228488.180866, -0.305859, -9.920225, 0.409259, -0.037550, 1.140372, 0.479361, 71.579590, -52.174347, 48.046906
1648228488.214200, -0.331747, -10.067019, 0.898125, -0.167790, 1.078982, 0.814571, 69.617874, -52.537033, 48.652847
1648228488.247535, -0.375890, -10.277410, 0.213982, -0.195212, 0.784855, 0.936862, 67.608322, -53.150711, 48.382248
1648228488.280955, -0.529119, -8.995315, -0.171784, -0.231645, 0.543423, 0.804651, 65.685638, -53.439789, 48.397202
1648228488.314204, -1.039084, -7.450456, -0.084096, -0.309204, 0.476601, 0.628448, 63.843781, -53.744461, 47.791977
1648228488.347611, -1.449240, -6.438008, 0.127042, -0.435352, 0.563625, 0.499418, 62.434433, -53.721146, 47.089584
1648228488.380882, -1.675343, -6.310367, 0.488716, -0.531996, 0.602990, 0.397712, 61.311417, -53.987335, 46.252945
1648228488.414200, -1.981052, -7.093720, 0.448913, -0.561524, 0.529303, 0.325481, 60.171082, -54.401428, 45.375885
1648228488.447607, -2.574365, -7.892186, 0.226551, -0.521714, 0.441342, 0.258373, 59.336594, -54.431732, 44.353455
1648228488.480885, -2.773683, -8.242338, -0.011073, -0.425466, 0.388407, 0.097393, 58.800140, -54.297974, 43.157562
1648228488.514272, -2.438644, -8.719383, -0.046388, -0.334511, 0.366156, -0.113353, 58.257416, -54.307571, 42.824738
1648228488.547541, -3.101389, -10.787225, -0.058808, -0.234444, 0.145910, -0.457361, 58.285751, -54.124054, 42.343231
1648228488.580869, -2.226308, -12.582727, -0.842011, -0.033606, -0.055721, -0.713028, 59.326309, -53.977631, 42.270889
1648228488.613822, -0.797419, -13.966276, -1.675642, 0.336681, -0.421153, -0.811192, 60.496964, -53.659943, 42.658966
1648228488.647539, -1.238550, -16.826749, -2.205658, 0.447034, -1.019878, -0.640727, 61.373367, -53.133667, 43.444916
1648228488.680875, -1.589151, -12.931682, -5.361366, 0.505221, -0.518419, -0.881013, 62.650330, -52.719208, 43.911896
1648228488.714221, 0.298078, -9.547927, -3.445855, 0.325872, 0.968638, -0.943902, 64.297531, -52.220154, 44.584778
1648228488.747542, 1.463605, -8.347534, -1.601122, -0.029795, 1.468815, -0.690520, 65.861145, -51.546814, 45.308136
1648228488.780882, 2.827403, -8.126369, -0.767940, 0.079174, 0.301847, -0.332482, 66.517609, -50.904495, 45.562698
1648228488.814205, 2.176629, -7.801057, -0.294786, 0.067827, -0.860771, -0.235664, 66.826263, -50.714783, 45.649994
1648228488.847554, 0.499490, -6.897545, -1.413028, 0.090338, -1.257226, -0.513271, 67.116806, -50.348419, 45.058441
1648228488.880876, -0.647183, -5.994033, -2.025944, 0.288034, -1.165902, -0.618308, 68.115494, -49.608276, 44.794083
1648228488.914198, -0.065392, -6.156690, -0.861164, 0.107140, -1.101097, -0.726443, 69.157333, -49.028687, 44.497238
1648228488.947546, 0.331747, -7.171981, -0.931344, -0.294999, -2.009862, -0.488109, 69.805283, -48.704803, 43.218826
1648228488.980902, -2.080112, -7.787440, -1.587056, -0.249357, -1.628988, -0.181702, 69.959229, -48.121292, 41.232101
1648228489.014209, -4.634576, -7.894880, -2.147150, -0.058070, -0.777065, -0.229862, 69.630890, -48.137131, 40.941681
1648228489.047571, -2.697068, -8.417564, -2.204760, 0.123787, 0.126410, -0.186529, 69.857834, -47.722183, 40.748932
1648228489.080879, -1.528698, -10.645518, -2.140117, 0.252963, 0.075439, -0.024891, 69.500717, -47.386826, 41.253159
1648228489.114207, -1.593042, -11.542745, -2.559701, 0.289261, -0.127794, 0.052387, 68.981628, -47.042679, 41.412766
1648228489.147542, -1.453280, -11.282825, -2.346168, 0.338322, 0.219671, 0.047882, 68.532440, -47.210709, 42.613831
1648228489.180874, -0.238522, -11.333402, -2.007388, 0.398846, 0.136205, 0.092658, 67.973877, -46.711929, 43.304352
1648228489.214207, -0.129137, -15.415816, 0.092626, 0.338943, -0.166412, 0.351939, 67.145645, -46.529083, 43.763382
1648228489.247555, -0.428412, -14.727483, -0.036960, 0.237033, -0.036087, 0.501133, 66.223648, -46.024948, 43.750519
1648228489.280877, -0.300472, -11.525537, -0.878373, 0.171501, 0.683048, 0.387370, 65.286255, -45.805176, 44.056061
1648228489.314273, 0.076914, -11.137676, -0.538546, -0.085281, 1.261586, 0.439720, 64.446930, -45.441132, 44.651855
1648228489.347544, 0.977433, -10.504560, 0.071826, -0.260231, 1.390948, 0.627350, 63.424530, -45.223221, 44.304993
1648228489.380878, 1.092803, -10.050859, -0.096965, -0.364201, 0.968918, 0.797208, 62.160828, -44.852692, 44.176514
1648228489.414208, 0.887351, -8.306084, -0.658405, -0.429230, 0.639452, 0.812814, 60.651321, -44.703964, 43.427704
1648228489.447554, 0.328455, -6.264429, -0.698359, -0.462766, 0.331771, 0.809666, 59.295990, -44.196014, 42.622543
1648228489.480922, 0.025289, -5.801899, -0.439486, -0.522328, 0.125821, 0.872270, 57.998123, -43.814972, 41.748398
1648228489.514209, -0.475548, -6.494721, -0.247201, -0.521394, -0.109060, 1.041144, 56.084427, -43.525772, 40.498032
1648228489.547547, -1.720234, -7.745542, -0.355240, -0.448722, -0.276222, 0.992758, 54.481033, -43.148773, 39.364670
1648228489.580897, -2.181866, -7.921964, -0.777816, -0.219097, -0.300161, 0.782723, 53.167023, -42.774155, 38.954895
1648228489.614234, -2.197279, -7.488464, -0.886304, 0.134578, -0.178510, 0.454802, 52.152512, -42.506210, 38.838928
1648228489.647549, -2.447024, -7.894281, -0.220566, 0.097558, -0.127633, 0.324368, 51.305649, -41.892334, 38.995789
1648228489.680933, -3.181445, -9.725546, 0.045191, -0.138538, -0.102453, 0.217318, 51.085068, -41.606964, 38.830139
1648228489.714211, -3.950582, -12.466758, -0.998831, 0.015546, -0.659886, -0.029249, 50.807068, -41.169022, 38.475052
1648228489.747551, -5.626972, -13.247716, -1.762432, 0.079171, -0.905441, -0.729665, 51.675827, -40.508377, 38.273621
1648228489.780885, -4.602254, -15.387384, -2.409465, 0.183863, -0.224232, -0.728672, 52.849426, -40.362747, 38.447052
1648228489.814212, -4.577863, -15.122526, -2.420987, 0.345723, 0.265186, -0.744044, 54.003372, -40.165680, 38.407013
1648228489.847545, -1.719785, -9.006089, -2.774431, 0.348909, 0.910007, -0.871275, 56.104446, -39.791092, 38.841736
1648228489.880880, 3.537583, -7.865551, -0.687435, 0.315695, 0.896750, -0.306342, 57.127396, -39.755356, 39.112366
1648228489.914213, 2.376993, -11.008988, -1.174506, 0.208769, -1.362855, -0.231110, 57.268066, -39.508759, 39.365906
1648228489.947549, 0.508618, -10.773010, -1.760786, 0.159262, -1.792062, -0.845593, 58.342728, -39.037567, 38.957306
1648228489.980887, -0.685041, -8.461408, -2.214337, -0.060643, -1.300667, -1.137433, 59.583359, -39.021942, 38.440231
1648228490.014222, -1.062577, -6.861034, -1.599327, -0.223757, -0.896296, -1.231196, 61.320160, -38.672897, 37.969986
1648228490.047564, -1.217601, -6.091448, -0.740706, -0.277922, -0.701964, -1.095060, 62.873657, -38.157867, 37.527023
1648228490.080882, -1.398663, -6.526145, -0.637905, -0.277523, -0.742204, -0.903882, 64.325851, -37.306030, 36.362152
1648228490.114213, -1.703325, -7.240664, -0.889147, -0.215130, -0.873046, -0.669390, 64.954742, -36.735352, 35.622986
1648228490.147549, -1.949479, -7.497592, -0.971447, -0.113811, -0.723454, -0.264048, 65.487274, -36.354370, 34.723434
1648228490.180881, -1.942745, -7.945308, -1.320701, 0.000807, -0.465410, 0.029877, 65.388824, -36.148941, 33.956726
1648228490.214207, -1.320552, -9.770587, -1.775301, 0.146073, -0.368324, 0.264584, 64.842239, -35.809433, 33.233719
1648228490.247551, -1.205331, -11.203367, -2.101511, 0.309664, -0.433042, 0.298199, 64.388885, -35.851074, 33.491486
1648228490.280896, -0.894234, -12.128577, -1.781286, 0.359479, -0.483401, 0.196409, 63.821045, -35.792114, 33.308762
1648228490.314211, -0.417339, -11.043554, -1.438466, 0.410099, -0.746655, -0.006413, 63.430222, -35.758820, 33.654709
1648228490.347551, -0.793977, -13.471873, -0.241665, 0.372960, -1.256920, 0.051523, 63.254654, -35.814484, 33.502502
1648228490.380875, -1.560271, -15.173702, 0.206201, 0.294020, -0.998196, 0.207566, 62.879623, -35.713364, 33.139908
1648228490.414213, -2.265663, -11.435755, -0.578798, 0.276507, -0.133608, 0.110392, 62.270813, -35.878876, 33.189651
1648228490.447609, -1.677288, -10.214263, -0.347608, 0.192709, 0.919093, 0.184131, 62.659912, -35.916138, 33.459686
1648228490.480889, -0.472556, -9.670330, -0.017508, -0.015794, 1.600377, 0.551812, 62.936539, -35.677567, 33.391998
1648228490.514214, 0.600047, -9.830442, -0.263512, -0.015658, 1.424708, 0.841726, 62.589935, -36.128540, 33.675949
1648228490.547580, 0.530465, -9.238775, -0.576404, -0.017383, 0.842201, 0.922300, 61.933029, -36.293518, 33.469284
1648228490.580884, -0.405518, -8.083423, -0.687734, -0.006599, 0.272817, 0.676598, 61.362244, -36.479294, 33.602158
1648228490.614213, -1.343297, -6.840384, -0.607828, -0.078504, 0.412513, 0.460459, 60.728302, -36.529083, 33.410751
1648228490.647566, -1.410484, -6.523002, -0.269497, -0.169857, 0.785715, 0.365170, 60.716599, -36.493851, 33.037567
1648228490.680875, -1.415572, -6.814347, -0.011223, -0.214761, 1.052097, 0.249762, 60.860489, -36.424652, 32.792084
1648228490.714217, -1.315015, -7.447613, 0.094721, -0.232969, 0.739998, 0.206339, 61.460388, -36.478394, 32.059952
1648228490.747115, -1.574637, -7.956381, 0.242263, -0.273449, 0.209739, 0.172811, 61.803696, -36.253799, 31.355286
1648228490.780881, -1.691653, -8.462904, 0.239271, -0.234913, -0.287735, 0.278896, 61.728241, -36.383896, 30.833603
1648228490.814220, -2.681207, -10.231471, 0.248398, -0.185532, -0.456903, 0.353969, 61.420059, -36.332352, 30.294662
1648228490.847556, -5.034108, -12.998270, -0.525976, -0.031546, -0.518714, 0.031926, 61.067093, -36.585953, 29.430313
1648228490.880914, -5.276222, -12.605921, -1.202189, 0.156810, -0.007583, -0.481835, 61.782211, -36.853439, 29.807083
1648228490.913982, -3.273173, -13.577518, -1.123479, 0.293008, 1.088261, -0.275068, 63.119125, -37.237778, 29.928879
1648228490.947549, -1.225682, -13.401394, -1.321001, 0.443663, 0.820272, -0.295749, 64.372421, -37.819000, 30.819809
1648228490.980952, 1.287781, -9.120113, -1.715296, 0.402522, 0.444355, -0.395975, 65.372009, -38.060852, 31.734314
1648228491.014223, 3.864391, -8.394370, -0.867150, 0.289728, 0.102213, -0.019834, 66.014511, -38.407288, 32.262604
1648228491.047559, 2.205658, -12.118551, -1.210419, 0.101298, -0.742853, -0.024203, 65.819901, -38.498795, 32.213242
1648228491.080893, 0.125696, -11.666197, -1.653944, 0.102114, -1.263643, -0.477465, 66.022232, -38.819458, 32.142639
1648228491.114227, -1.522862, -9.006388, -0.678457, -0.081805, -0.517830, -0.862641, 67.109436, -38.930817, 31.992493
1648228491.147599, -1.709759, -6.902483, -0.277428, -0.128523, -0.270348, -0.731324, 68.175262, -38.726715, 31.623596
1648228491.180888, -1.308282, -6.463147, -0.373196, -0.189078, -0.296656, -0.604405, 69.251862, -38.785614, 31.351532
1648228491.214222, -1.502212, -6.544251, -0.541239, -0.331170, -0.578668, -0.487182, 69.878555, -38.481583, 30.676956
1648228491.247622, -2.240673, -6.732794, -0.888997, -0.297599, -0.595489, -0.443015, 70.479431, -38.422409, 30.142609
1648228491.280885, -3.010260, -7.292140, -1.013795, -0.225088, -0.249614, -0.475011, 71.637314, -37.969574, 29.038788
1648228491.314093, -2.218377, -7.730428, -1.380407, -0.125050, 0.212470, -0.415427, 72.382217, -38.101700, 29.151855
1648228491.347568, -1.514781, -9.354894, -1.316961, -0.050235, 0.348853, -0.179277, 73.261215, -38.190826, 29.103104
1648228491.380890, -0.757017, -11.419294, -1.256507, 0.066820, 0.022000, 0.008166, 73.673691, -38.455032, 28.894699
1648228491.414231, -1.039383, -12.229732, -1.292719, 0.149194, -0.179253, 0.129598, 73.796539, -38.775146, 28.897049
1648228491.447568, -0.917877, -11.601703, -1.966837, 0.352378, -0.391397, 0.120533, 73.615067, -39.043457, 29.135971
1648228491.480884, -1.117943, -14.203751, -0.928352, 0.421041, -0.364553, 0.233726, 73.487366, -39.556763, 29.329315
1648228491.514225, -1.189769, -14.028675, -0.418836, 0.358597, 0.064624, 0.354521, 72.927383, -40.572708, 30.043228
1648228491.547579, -0.829292, -11.420043, 0.101005, 0.191231, 0.966500, 0.337116, 73.021301, -41.238602, 30.937805
1648228491.580893, -0.152630, -10.429741, 0.446519, 0.019975, 1.448298, 0.472892, 73.100006, -42.003586, 32.134796
1648228491.614231, 0.357784, -10.711958, 0.339079, -0.115928, 1.499982, 0.759633, 72.600159, -42.802734, 33.277679
1648228491.647054, 0.412401, -10.620080, -0.186897, -0.143017, 1.070553, 0.994043, 71.837189, -43.592300, 34.031815
1648228491.680896, -0.028730, -9.561095, -0.607978, -0.151494, 0.814516, 0.955841, 70.529541, -44.426743, 34.391129
1648228491.714225, -0.620697, -7.793276, -0.539144, -0.186887, 0.724668, 0.901926, 69.082352, -45.215759, 34.486145
1648228491.747559, -0.986860, -6.927922, -0.106542, -0.366815, 0.742431, 0.782679, 67.895035, -45.628799, 34.670197
1648228491.780621, -0.879271, -6.443694, 0.033668, -0.471286, 0.693884, 0.775220, 66.889648, -46.375244, 34.180450
1648228491.814224, -0.829741, -6.880038, 0.042347, -0.464804, 0.464388, 0.843207, 65.852982, -46.612213, 33.973221
1648228491.847621, -1.741632, -7.793575, 0.085443, -0.448401, -0.049912, 0.750357, 64.010345, -46.879013, 32.948929
1648228491.880883, -2.910002, -8.117840, -0.149189, -0.414645, -0.446596, 0.238614, 62.992966, -47.212692, 32.268509
1648228491.914225, -2.793285, -7.487417, -0.749684, -0.321918, -0.146706, 0.091652, 62.714737, -47.438583, 31.858780
1648228491.947576, -2.284517, -8.369680, -0.738611, -0.265956, 0.108154, 0.278147, 62.093582, -47.732727, 30.979141
1648228491.980885, -2.854637, -11.396400, -0.701950, -0.147699, -0.216075, 0.246755, 61.363174, -48.001831, 30.954041
1648228492.014229, -3.835960, -11.393407, -0.831835, -0.152724, -0.803080, -0.251760, 61.030243, -47.994003, 30.245514
1648228492.047560, -3.517830, -13.089699, -1.195754, -0.029897, -0.975316, -0.341003, 60.687653, -48.217056, 29.973312
1648228492.080890, -4.992509, -15.061923, -2.296788, 0.405642, -0.786998, -0.572795, 60.793137, -48.580963, 30.396179
1648228492.114222, -3.764134, -12.332982, -3.487005, 0.577158, 0.031099, -0.630322, 61.501846, -48.773193, 31.363785
1648228492.146676, 0.083199, -8.923938, -2.696769, 0.483253, 0.532193, -0.405542, 62.272949, -48.979279, 33.096985
1648228492.180883, 1.294066, -9.614366, -1.712902, 0.146197, 0.170377, -0.252258, 62.838547, -49.107727, 34.117859
1648228492.214249, 0.600795, -10.205883, -1.535880, 0.008921, -0.910213, -0.747413, 63.278320, -48.991089, 34.559464
1648228492.247570, -0.389207, -8.822932, -1.459565, -0.146291, -1.449012, -1.067714, 64.303055, -48.746704, 34.217773
1648228492.280896, -0.878822, -7.662642, -1.506102, -0.499059, -1.133234, -0.996053, 65.615326, -48.080688, 32.971375
1648228492.313639, -1.793407, -6.952462, -1.824232, -0.621054, -0.685591, -0.798242, 66.714706, -47.458145, 31.929779
1648228492.347567, -2.108095, -6.978050, -1.180341, -0.637937, -0.396062, -0.676917, 67.653366, -47.045639, 30.866638
1648228492.380895, -2.134730, -7.236923, -1.052102, -0.587911, -0.353576, -0.572086, 68.591217, -46.317902, 29.852600
1648228492.414232, -2.174683, -7.892186, -1.166425, -0.382948, -0.584953, -0.469488, 68.923843, -45.805969, 29.086761
1648228492.447574, -2.166902, -8.536526, -1.408539, -0.241990, -0.734489, -0.479708, 69.032593, -45.446487, 28.541321
1648228492.480890, -2.003648, -8.610597, -1.659481, -0.096548, -0.811700, -0.398984, 69.235413, -45.357925, 27.827148
1648228492.514231, -1.837999, -8.703372, -2.053926, 0.062474, -0.925048, -0.187180, 69.112946, -45.087921, 27.806580
1648228492.547625, -2.807800, -9.920375, -2.012775, 0.137242, -0.842376, -0.193647, 68.603622, -44.848602, 27.299667
1648228492.580911, -3.352780, -10.733655, -2.282123, 0.298596, -0.340620, -0.304573, 68.742737, -45.051605, 27.980591
1648228492.614232, -1.999458, -12.374581, -2.095824, 0.623428, 0.091055, 0.078786, 68.808792, -44.924011, 29.331757
1648228492.647577, -2.360832, -16.381876, -1.363797, 0.701431, 0.036300, 0.168466, 68.406769, -45.146774, 30.913925
1648228492.680895, -0.788141, -11.892449, -0.958429, 0.553501, 0.389083, 0.153889, 68.334015, -45.415390, 32.315491
1648228492.714234, -0.144101, -10.508001, -1.554136, 0.476662, 1.088371, 0.287886, 68.272110, -45.267899, 34.391129
1648228492.747476, -0.433799, -11.848605, -1.359308, 0.359229, 1.301165, 0.245465, 67.985428, -45.489090, 35.833237
1648228492.780899, -0.154426, -10.444256, -0.678158, 0.298354, 1.547783, 0.307559, 68.179184, -45.228668, 37.258301
1648228492.814242, -0.169689, -9.609877, -0.547225, 0.219076, 1.700691, 0.414113, 67.709717, -45.385895, 38.841461
1648228492.847572, -0.203507, -8.432229, -0.638055, -0.030778, 1.618023, 0.461441, 67.247284, -45.104263, 39.975540
1648228492.880893, -0.218920, -6.588244, -0.207847, -0.205543, 1.471673, 0.414737, 67.108505, -45.185455, 40.850739
1648228492.914244, 0.157868, -5.713164, -0.005537, -0.356024, 1.172145, 0.422669, 66.249634, -44.967621, 41.401443
1648228492.947569, -0.051176, -6.071097, 0.345064, -0.470946, 0.541380, 0.651153, 65.339233, -44.969223, 41.158813
1648228492.980896, -0.829591, -6.783222, 0.566229, -0.523083, 0.098251, 0.707487, 64.008972, -44.977036, 40.666824
1648228493.014269, -1.702128, -7.531859, 0.185401, -0.513194, -0.211248, 0.684687, 62.901047, -44.916260, 40.217270
1648228493.047573, -1.893215, -7.790283, 0.075567, -0.403211, -0.361393, 0.635625, 61.336044, -44.852524, 39.379166
1648228493.080910, -2.338836, -9.288754, -0.188843, -0.225911, -0.535911, 0.558498, 60.158508, -44.899719, 39.092392
1648228493.114303, -4.305373, -12.030265, -0.668431, -0.083060, -0.828380, 0.093520, 59.593597, -44.744888, 38.933533
1648228493.147568, -4.515315, -12.391939, -1.502062, 0.103613, -0.556797, -0.562985, 60.058853, -44.618958, 39.496063
1648228493.180882, -3.030012, -12.132767, -2.076371, 0.185874, 0.159899, -0.560760, 60.787872, -44.231216, 39.819260
1648228493.214233, -1.519271, -14.875474, -1.861641, 0.291859, 0.113582, -0.209483, 61.248154, -44.047775, 40.487549
1648228493.247561, -1.870769, -13.894899, -2.688090, 0.469541, -0.547985, -0.296555, 61.851456, -43.923996, 41.694092
1648228493.280895, -0.995689, -10.040384, -3.314473, 0.463110, -0.308141, -0.438189, 62.402618, -43.491440, 42.531158
1648228493.314229, 0.825251, -8.743924, -1.866280, 0.245344, 0.495363, -0.241670, 63.096191, -43.455261, 43.036957
1648228493.347570, 0.839168, -9.462035, -1.363049, 0.102521, 0.302340, -0.201840, 63.580841, -43.364624, 43.968063
1648228493.380410, 0.465074, -9.317036, -0.656161, 0.007903, -0.890270, -0.597083, 64.429108, -42.854263, 43.630295
1648228493.414233, -0.489914, -7.550713, -0.761805, -0.090152, -1.155720, -0.869102, 65.858307, -42.611038, 43.646027
1648228493.446887, -1.246481, -6.447585, -1.037886, -0.156958, -1.038635, -0.915326, 66.825455, -42.146851, 43.282181
1648228493.480901, -1.892916, -6.570886, -1.007959, -0.232309, -0.558603, -0.750748, 68.473129, -41.458450, 42.384399
1648228493.514239, -2.370409, -7.271041, -0.820313, -0.297151, -0.232822, -0.706059, 69.655136, -41.105316, 42.210556
1648228493.547566, -2.244714, -8.026561, -1.525106, -0.125689, -0.170195, -0.703923, 70.607101, -40.667267, 42.130402
1648228493.580902, -1.629853, -8.096143, -1.673547, -0.014318, 0.083637, -0.354492, 71.772675, -40.196976, 41.990448
1648228493.614238, -1.552041, -8.208820, -1.267281, -0.005882, 0.100594, -0.207597, 72.251465, -39.867203, 42.088684
1648228493.647571, -0.787692, -9.500641, -1.543362, 0.087061, -0.241546, 0.018113, 72.462051, -39.778000, 42.299515
1648228493.681003, -1.876904, -11.837980, -1.686715, 0.197501, -0.605050, 0.108613, 72.448273, -39.785889, 42.459137
1648228493.714239, -2.546233, -11.479748, -2.110339, 0.321582, -0.097821, -0.005795, 72.276566, -39.504349, 42.034195
1648228493.747571, -1.029357, -12.636297, -1.603217, 0.400502, 0.178056, 0.214839, 72.167007, -39.430817, 42.845093
1648228493.780904, -0.863858, -15.223980, -0.071527, 0.283080, 0.167500, 0.383622, 71.899490, -39.880676, 43.430130
1648228493.814237, -0.542736, -12.840552, 0.045789, 0.119309, 0.302843, 0.318313, 71.352966, -39.720490, 43.347290
1648228493.847571, -0.565032, -11.686547, -0.635212, 0.055397, 0.844292, 0.277711, 71.144653, -39.815140, 44.151367
1648228493.880900, -0.048034, -11.895741, -0.604386, -0.071879, 1.395353, 0.392397, 70.838089, -39.929993, 44.444641
1648228493.914253, 0.451606, -11.004948, -0.436044, -0.077301, 1.613899, 0.623652, 69.846161, -40.200180, 45.232849
1648228493.947566, 0.787842, -9.974244, -0.468216, -0.133576, 1.282463, 0.734349, 69.152451, -40.118057, 45.467743
1648228493.980906, 0.727089, -7.961469, -0.464625, -0.215631, 0.826424, 0.803707, 67.803574, -40.429306, 45.573380
1648228494.014247, 0.140510, -6.817190, -0.214131, -0.363247, 0.384850, 0.836173, 66.571365, -40.984894, 45.024918
1648228494.047602, -0.465672, -6.091896, -0.027833, -0.479319, 0.300081, 0.770126, 65.661469, -41.192062, 44.585876
1648228494.080896, -0.932242, -6.075885, -0.114024, -0.532640, 0.272832, 0.755132, 64.563278, -41.301834, 43.359482
1648228494.114240, -1.346439, -6.804920, -0.319027, -0.537842, 0.194193, 0.762334, 63.309616, -41.238571, 42.528488
1648228494.147571, -1.870620, -7.857171, -0.604835, -0.430628, 0.132306, 0.752180, 61.859711, -41.488037, 41.737869
1648228494.180885, -2.807501, -8.258200, -0.936432, -0.282983, 0.079672, 0.595146, 60.905624, -41.881226, 41.140610
1648228494.214254, -2.579603, -8.397363, -0.580145, -0.233759, 0.103603, 0.330688, 60.758102, -41.681534, 40.738297
1648228494.247568, -2.857929, -10.934768, -0.584185, -0.121945, -0.108271, 0.357773, 60.027359, -41.955444, 40.362747
1648228494.280902, -4.839579, -12.881403, -1.997812, 0.147320, -0.469834, -0.180610, 59.643906, -41.793304, 40.318008
1648228494.314236, -3.324349, -12.033856, -2.297236, 0.229743, -0.184429, -0.687415, 60.424271, -41.709061, 40.269196
1648228494.347569, -2.398392, -14.073117, -1.655291, 0.332841, -0.112270, -0.495312, 61.648987, -41.432205, 40.491760
1648228494.380922, -2.698864, -13.498210, -2.293196, 0.492040, -0.431648, -0.829621, 62.398010, -41.384186, 41.140167
1648228494.414248, -0.251840, -8.690503, -3.047071, 0.650352, -0.044915, -0.899533, 63.570297, -41.048767, 41.857162
1648228494.447581, 1.081132, -8.928726, -1.427393, 0.323013, 0.008101, -0.361662, 64.447998, -40.933197, 42.542938
1648228494.480919, -0.030676, -10.485257, -1.618780, 0.198194, -0.364717, -0.586942, 65.361603, -40.607910, 42.523209
1648228494.514248, -0.263661, -9.627683, -1.571195, 0.243290, -0.721474, -0.892855, 66.551376, -40.267685, 42.666153
1648228494.547571, -0.007482, -7.974786, -1.117943, 0.069809, -0.675580, -1.019549, 67.691467, -39.699280, 42.688004
1648228494.580913, -0.165649, -7.055712, -1.305588, -0.038598, -0.679364, -0.975258, 69.511887, -39.067886, 42.083328
1648228494.614246, -0.721553, -6.372766, -1.051653, -0.049917, -0.758266, -0.855962, 70.221100, -38.538132, 41.838745
1648228494.647593, -0.717213, -6.517915, -0.822259, -0.116590, -0.803379, -0.664377, 71.088425, -38.024094, 41.104782
1648228494.680915, -1.310676, -7.320421, -1.065420, -0.106623, -1.040773, -0.495194, 71.845261, -37.693771, 39.997391
1648228494.714250, -2.448819, -8.126818, -1.443404, -0.050815, -1.039102, -0.406673, 71.822662, -37.658920, 39.253296
1648228494.747593, -2.818424, -8.727164, -1.834258, 0.049963, -0.617840, -0.293134, 72.091614, -37.209610, 39.057602
1648228494.780972, -2.098817, -10.051008, -1.096095, 0.065477, -0.120378, -0.112674, 72.048248, -37.279312, 39.113113
1648228494.814250, -2.444181, -10.890026, -1.368436, 0.082092, -0.036212, -0.212370, 71.881241, -36.883224, 38.786575
1648228494.847637, -1.650353, -11.226112, -1.507150, 0.184971, 0.029496, -0.187811, 72.116791, -36.966827, 39.497650
1648228494.880915, -0.711527, -12.259210, -1.578677, 0.336963, 0.035188, 0.098772, 71.883881, -36.733902, 39.563599
1648228494.913401, -0.190489, -14.171878, -1.084124, 0.448105, -0.225748, 0.482573, 70.815521, -36.862762, 40.135269
1648228494.947576, -0.875829, -13.352612, 0.289549, 0.317427, -0.224483, 0.642502, 69.948349, -37.203262, 40.774231
1648228494.980918, -0.776619, -11.651831, 0.067786, 0.181497, 0.557272, 0.751334, 68.765717, -37.370102, 41.211746
1648228495.014257, -0.696862, -12.024279, 0.290896, 0.012615, 1.149131, 0.871625, 67.263016, -37.470398, 41.820740
1648228495.047581, -0.116418, -10.649559, -0.077662, -0.061031, 1.440236, 0.951468, 66.163498, -37.673645, 42.365875
1648228495.080923, 0.296582, -10.065822, -0.370652, -0.054933, 1.401454, 1.124970, 64.563568, -37.728638, 42.557159
1648228495.114310, 0.114922, -8.813655, -0.536900, -0.124181, 0.965751, 1.124172, 62.930878, -37.689880, 42.830017
1648228495.147583, -0.339079, -6.904878, -0.386215, -0.173901, 0.670360, 1.037369, 61.058105, -37.757462, 42.650177
1648228495.180916, -0.688333, -6.230162, 0.032920, -0.294711, 0.631397, 0.943367, 59.779129, -37.657654, 42.435501
1648228495.214323, -1.074099, -6.347478, 0.348057, -0.482794, 0.659757, 0.923883, 58.511673, -37.834045, 42.112228
1648228495.247581, -1.925836, -7.494599, 0.147992, -0.527121, 0.394531, 0.876005, 56.811676, -37.568970, 41.126999
1648228495.280920, -3.066673, -8.419809, -0.336685, -0.449624, -0.110044, 0.580546, 55.719696, -37.354614, 40.772034
1648228495.314249, -4.123863, -8.225429, -0.933140, -0.238749, -0.214699, -0.209549, 55.445419, -37.220169, 40.169907
1648228495.347583, -4.319888, -7.222109, -1.160889, -0.115514, 0.383901, -0.631818, 56.356018, -36.982071, 40.314682
1648228495.380915, -4.104559, -9.199870, -0.207248, -0.135390, 1.148614, -0.723200, 57.396240, -36.712112, 40.302048
1648228495.414258, -2.964321, -13.023709, 0.409857, -0.144619, 1.669598, -0.312425, 58.273941, -36.454330, 40.325150
1648228495.446850, -1.159243, -12.340763, -0.571167, 0.116936, 0.693042, -0.312456, 58.894943, -36.169434, 39.994659
1648228495.480934, -0.454749, -12.975376, -1.412579, 0.428864, -0.367029, -0.227564, 59.258026, -36.145737, 40.934631
1648228495.514227, -1.367089, -13.811102, -1.506252, 0.659908, -1.162793, -0.012137, 59.203186, -36.207199, 41.673798
1648228495.547591, -2.016965, -11.529577, -2.740463, 0.727818, -0.680294, -0.160462, 59.136230, -35.925934, 42.544495
1648228495.580927, -0.339827, -9.788394, -2.857629, 0.638657, 0.404784, -0.400443, 59.598892, -35.736816, 43.685654
1648228495.614260, 0.940921, -10.092458, -2.139668, 0.384532, 0.797317, -0.438689, 60.488205, -35.607376, 44.422852
1648228495.647596, 1.754950, -9.682600, -1.278953, 0.344640, -0.305963, -0.973419, 61.236481, -35.172073, 44.633987
1648228495.680926, 2.308759, -8.295759, -0.388758, 0.246834, -1.261262, -1.095341, 63.237305, -34.748901, 44.913040
1648228495.714259, 0.617105, -7.600094, -0.566079, 0.054122, -2.004428, -1.038472, 64.325516, -34.427200, 44.483536
1648228495.747140, -1.029507, -6.831555, -0.437091, -0.069158, -1.948510, -0.933087, 65.674637, -34.172348, 43.465591
1648228495.780935, -2.065597, -6.702119, -0.467019, -0.148336, -1.501365, -0.784721, 66.925247, -33.770142, 43.034958
1648228495.814259, -2.749292, -7.531111, -0.721253, -0.150396, -0.986537, -0.718909, 67.468552, -33.511734, 42.738235
1648228495.847598, -2.707244, -8.015039, -0.923713, 0.051891, -0.589017, -0.524597, 68.114075, -33.089767, 41.917755
1648228495.880935, -2.398541, -7.896376, -0.651672, 0.123048, -0.418259, -0.283356, 68.677994, -32.786865, 41.917465
1648228495.914279, -2.620005, -8.794352, -0.580744, 0.232755, -0.259100, 0.004763, 68.708786, -32.708313, 42.023178
1648228495.947588, -2.757222, -10.198252, -0.336086, 0.261014, -0.119045, 0.184787, 68.465363, -32.670929, 42.329773
1648228495.980935, -1.938106, -11.301979, -1.228076, 0.414155, -0.137125, 0.292174, 67.952744, -32.744049, 42.768631
1648228496.013537, -1.880496, -12.634801, -1.011849, 0.316584, -0.088539, 0.102657, 67.795303, -32.787262, 43.568665
1648228496.047593, -1.127968, -13.556718, -0.846201, 0.326724, -0.045944, 0.060936, 67.573151, -32.794647, 43.626083
1648228496.080915, -1.525256, -16.122105, 0.573112, 0.111390, 0.415419, 0.268048, 67.503464, -32.830246, 43.888535
1648228496.114266, -0.702848, -12.580482, 0.238373, -0.015952, 1.078638, 0.219675, 67.037048, -32.548248, 44.095718
1648228496.147652, 0.432303, -10.810569, -0.256180, -0.097953, 1.755191, 0.421027, 66.629272, -32.528625, 44.757599
1648228496.180668, 0.800860, -10.999561, 0.309301, -0.319903, 1.862315, 0.881762, 66.028702, -32.822083, 45.216736
1648228496.214255, 0.869843, -10.596288, 0.537349, -0.404386, 1.290639, 1.111609, 64.254120, -32.829132, 45.078995
1648228496.247603, 0.207697, -9.724050, 0.364816, -0.498261, 0.483864, 1.113340, 63.326096, -32.844803, 44.732010
1648228496.280929, -0.943315, -8.240094, 0.017208, -0.603313, 0.128549, 0.861767, 62.194031, -32.913345, 43.763031
1648228496.314273, -1.652298, -6.808810, -0.291045, -0.634767, 0.558633, 0.708289, 61.369843, -32.866394, 42.920151
1648228496.347573, -1.184681, -6.002712, -0.179864, -0.717503, 0.986998, 0.754047, 60.435715, -32.753143, 41.967682
1648228496.380746, -0.883460, -6.108057, -0.046537, -0.774944, 0.919392, 0.751270, 59.956085, -32.749756, 41.584854
1648228496.414339, -0.985364, -6.605902, -0.012570, -0.727202, 0.336026, 0.654588, 59.167007, -32.426468, 40.602158
1648228496.447599, -2.053477, -7.699154, -0.125995, -0.600792, -0.284103, 0.509003, 58.524139, -32.174088, 39.389603
1648228496.480618, -2.767847, -7.645584, -0.487968, -0.419068, -0.599350, 0.280560, 58.260895, -31.870743, 38.646194
1648228496.514259, -2.808099, -7.543681, -0.962469, -0.064455, -0.560131, 0.135062, 58.208252, -31.362976, 38.487320
1648228496.547588, -3.330783, -10.809072, -1.004068, 0.197740, -0.229556, 0.162822, 58.160507, -31.497269, 38.424545
1648228496.580992, -4.821773, -13.498210, -1.040281, 0.246952, -0.093330, -0.166258, 58.478195, -31.509323, 38.326385
1648228496.614272, -3.673902, -13.411270, -2.310854, 0.358018, -0.203410, -0.565233, 59.314926, -31.236877, 38.776703
1648228496.647596, -2.946664, -14.903008, -2.620603, 0.458491, -0.251691, -0.763549, 60.382721, -31.131546, 38.954132
1648228496.680971, -1.177199, -11.855937, -3.337218, 0.424299, -0.336755, -0.841810, 62.015564, -30.963440, 39.420349
1648228496.714263, 2.049586, -9.469666, -3.334075, 0.318710, 0.276187, -0.556282, 62.918655, -30.556396, 39.731476
1648228496.747593, 1.861043, -10.213964, -2.847454, 0.208793, -0.208585, -0.393615, 63.887878, -30.475677, 40.207184
1648228496.780934, -0.623390, -10.078841, -1.363797, -0.022108, -1.122181, -0.741303, 64.841141, -30.161179, 39.637573
1648228496.814270, -1.094749, -8.950124, -1.926285, 0.108799, -0.821643, -0.991292, 65.876801, -29.806503, 38.899521
1648228496.847601, -1.679532, -7.656208, -1.639430, 0.003374, -0.607602, -1.100059, 67.172363, -29.655243, 38.891357
1648228496.880929, -1.362600, -6.168361, -1.548899, -0.089404, -0.667412, -1.027185, 68.692596, -28.885239, 38.557587
1648228496.914264, -1.814206, -6.626851, -1.061080, -0.158984, -0.566789, -0.851712, 69.748444, -28.466354, 37.969009
1648228496.946805, -2.719813, -7.024887, -0.952743, -0.145897, -0.351477, -0.891958, 70.884857, -27.617355, 36.875595
1648228496.980932, -1.959355, -7.176470, -1.235258, -0.007803, -0.108693, -0.834345, 71.821289, -27.323105, 36.384216
1648228497.014258, -0.969502, -7.594707, -1.409886, 0.143112, 0.034606, -0.550400, 73.121750, -26.601837, 36.338379
1648228497.047353, -0.982521, -7.961768, -1.270124, 0.146808, -0.305369, -0.433940, 73.651962, -26.244507, 35.840210
1648228497.080931, -0.475848, -8.482058, -1.707215, 0.188860, -0.448630, -0.378395, 74.165375, -26.054108, 35.685577
1648228497.114267, -0.616208, -10.612299, -1.634492, 0.264869, -0.508464, -0.097000, 74.457108, -25.625488, 35.152557
1648228497.147607, -1.759888, -12.590209, -1.308282, 0.324825, -0.484741, -0.006226, 74.357574, -25.662521, 35.135254
1648228497.180934, -1.751209, -11.856087, -1.884087, 0.446133, -0.405908, -0.004587, 74.603622, -25.537506, 34.864441
1648228497.214264, -0.449511, -14.163798, -0.743849, 0.498776, -0.254192, 0.294604, 74.253296, -25.723694, 34.974823
1648228497.247601, -0.544681, -16.649727, 0.042347, 0.385091, 0.034985, 0.716447, 73.962738, -26.352631, 35.183838
1648228497.280924, -1.231218, -13.306075, -0.566378, 0.294750, 0.465315, 0.544257, 73.527084, -26.919815, 35.307816
1648228497.314263, -1.202189, -11.624448, -1.442507, 0.163129, 1.496983, 0.419424, 73.540192, -27.414276, 36.324005
1648228497.347595, 0.175675, -10.576835, -0.806996, -0.074109, 2.715633, 0.813913, 73.832977, -28.263672, 37.262283
1648228497.380962, 0.955885, -9.955689, 0.157119, -0.246638, 2.592379, 1.068660, 73.582504, -28.776840, 38.256546
1648228497.414266, 1.749713, -8.660426, 0.431256, -0.443701, 1.772196, 1.229484, 72.869553, -29.384415, 39.213623
1648228497.447687, 1.417367, -7.323713, 0.426617, -0.595168, 0.736888, 1.312369, 71.351562, -30.814392, 38.641785
1648228497.480938, 0.338780, -6.457760, 0.123451, -0.699607, -0.315219, 1.246583, 69.970963, -31.256058, 37.540375
1648228497.514263, -1.344793, -5.934627, -0.773028, -0.691332, -0.682838, 1.030165, 68.589279, -31.936829, 36.230225
1648228497.547606, -2.286313, -6.227917, -1.223437, -0.541776, -0.651056, 0.682207, 67.166458, -32.289658, 34.986435
1648228497.580931, -3.072060, -7.125144, -1.362600, -0.272265, 0.238313, 0.319635, 66.556488, -32.328293, 34.563644
1648228497.614270, -3.146879, -8.018780, -0.692373, -0.250005, 0.929139, 0.371466, 66.522583, -32.837265, 34.026001
1648228497.647606, -2.978088, -8.908076, -0.295534, -0.278922, 0.869339, 0.484925, 66.306381, -33.186371, 33.690094
1648228497.680979, -2.831592, -9.518598, -0.537498, -0.158860, 0.025097, 0.301734, 66.005600, -33.456558, 33.498398
1648228497.713581, -3.189226, -10.265738, -0.649427, -0.099478, -0.592696, 0.078474, 65.719864, -33.765442, 32.845428
1648228497.747581, -5.174468, -11.282825, -1.237054, -0.046484, -0.518358, -0.415364, 65.609406, -33.836685, 32.618225
1648228497.780925, -2.747795, -11.577012, -1.669207, -0.034719, 0.323542, -0.485793, 66.543503, -33.876877, 31.973816
1648228497.814271, -1.009455, -15.985636, -1.991377, 0.387286, -0.082405, -0.426964, 66.830612, -34.199020, 32.756378
1648228497.847607, -1.689409, -12.560880, -3.082684, 0.628379, -0.662294, -0.970802, 67.451523, -34.534500, 32.432632
1648228497.880974, 0.811485, -9.084798, -2.632425, 0.578064, -0.576916, -0.960165, 68.196518, -34.353760, 32.938034
1648228497.914277, 2.300828, -8.988132, -1.432630, 0.224696, -0.201328, -0.273515, 68.660583, -34.456436, 33.260696
1648228497.947599, -0.076016, -10.217256, -1.961001, 0.240213, -0.815571, -0.506729, 68.835526, -34.646866, 33.110001
1648228497.980942, -0.965761, -9.534758, -1.103128, 0.170307, -1.361880, -0.896108, 69.182083, -34.217407, 32.841339
1648228498.014282, -0.916081, -7.727585, -1.086668, -0.002122, -1.096829, -1.094411, 69.734207, -34.014572, 32.192551
1648228498.047610, -1.449091, -6.705710, -1.186327, -0.021105, -0.872791, -1.046206, 70.648209, -33.406311, 31.823212
1648228498.080931, -2.179771, -7.116615, -1.395670, -0.062955, -0.706485, -0.910794, 71.186462, -33.024872, 31.634781
1648228498.114263, -3.084330, -7.239018, -1.470638, 0.099533, -0.402566, -1.000021, 72.097641, -32.765091, 30.927719
1648228498.147664, -2.699013, -7.572112, -0.695216, 0.155338, 0.095254, -0.913016, 73.059830, -32.306000, 31.024765
1648228498.181010, -1.353173, -7.762900, -0.121057, -0.035890, 0.099446, -0.495562, 73.645721, -32.175598, 31.174576
1648228498.214332, -1.241842, -8.426842, -1.419762, -0.027483, -0.736537, -0.214550, 73.709793, -32.342422, 31.283020
1648228498.247650, -2.064251, -10.152612, -1.898303, 0.022448, -0.833030, -0.178665, 73.228577, -32.294357, 30.543640
1648228498.280942, -3.134309, -11.598710, -2.122160, 0.098641, -0.142834, -0.121732, 72.881546, -32.121140, 30.428558
1648228498.314276, -2.427720, -11.972355, -2.238429, 0.202453, 0.501909, -0.031561, 72.968002, -32.472092, 31.322525
1648228498.347227, -0.726939, -12.500725, -1.460613, 0.296368, 0.397931, 0.201790, 73.029892, -32.521530, 31.637360
1648228498.380945, -1.375618, -14.737059, 0.761057, 0.189091, 0.500640, 0.508833, 72.529312, -32.791748, 32.535873
1648228498.414265, -0.634164, -13.192650, 0.508768, 0.086675, 0.818686, 0.813309, 71.498718, -33.451370, 33.327942
1648228498.447621, 0.145897, -11.034576, -0.497844, -0.048305, 1.026990, 0.741790, 70.696548, -33.824509, 34.066284
1648228498.480948, -0.006883, -10.583120, -0.519242, -0.241195, 1.366913, 0.759188, 70.048462, -33.984573, 34.698166
1648228498.514273, 0.373495, -9.711181, -0.115820, -0.389981, 1.642158, 0.811031, 69.550461, -34.324097, 34.919418
1648228498.547623, 0.899472, -9.337686, -0.133776, -0.526888, 1.327345, 0.969062, 68.636581, -34.423508, 35.396271
1648228498.580961, 0.797568, -8.562563, -0.292242, -0.577497, 0.703259, 1.065045, 67.496658, -34.816147, 34.961990
1648228498.613803, -0.275184, -7.318775, -0.376039, -0.600398, 0.172950, 1.068816, 66.271484, -34.915604, 34.902435
1648228498.647584, -0.799813, -6.464344, -0.352097, -0.649783, 0.123763, 1.111623, 64.707443, -35.277756, 33.142227
1648228498.680920, -0.963217, -6.353014, -0.376039, -0.627742, 0.269935, 1.235310, 63.027786, -35.292435, 33.013596
1648228498.714253, -1.575385, -7.496844, -0.384269, -0.543759, 0.217187, 1.268731, 61.584579, -35.234879, 32.619308
1648228498.747586, -3.432387, -7.948600, -0.550217, -0.261698, -0.073643, 0.801732, 59.984192, -35.528107, 32.078064
1648228498.780917, -3.676446, -7.193828, -0.931045, -0.033951, 0.112657, 0.616974, 59.350143, -35.718124, 32.082855
1648228498.814288, -2.497003, -8.395268, -0.191686, -0.104423, -0.015412, 1.007879, 58.309067, -35.823593, 31.991165
1648228498.847663, -2.889053, -9.208100, -1.427393, -0.117129, -0.479750, 0.976754, 57.071609, -35.980927, 31.875458
1648228498.880961, -3.945944, -11.173889, -2.601150, 0.245782, -1.022517, 0.271307, 55.602463, -36.060013, 32.236313
1648228498.914279, -6.172701, -11.816283, -2.132186, 0.150549, -0.700173, -0.475825, 55.648148, -36.358780, 32.346481
1648228498.947639, -5.855469, -13.947272, -1.887678, 0.134557, -0.201989, -0.910811, 56.720856, -36.476562, 32.570099
1648228498.980967, -5.235820, -13.639318, -2.517503, 0.410649, -0.105767, -1.307172, 58.870300, -36.906662, 33.316116
1648228499.014276, -1.656189, -9.564387, -3.503465, 0.652105, 0.328267, -1.104163, 60.518234, -37.073730, 34.244537
1648228499.047624, -0.015562, -9.678261, -1.851316, 0.686059, 0.291286, -0.595739, 61.616714, -37.582901, 35.082626
1648228499.080939, -0.939724, -10.571298, -0.927304, 0.446834, -0.937591, -0.695986, 62.469284, -38.084930, 36.212082
1648228499.114290, -1.280898, -9.298780, -1.045518, 0.271242, -1.364299, -0.889337, 63.172531, -38.212845, 36.409256
1648228499.147618, -1.641525, -6.983737, -1.047014, 0.091442, -0.886612, -1.098089, 64.370483, -37.996582, 36.152130
1648228499.180946, -1.678335, -6.054786, -1.509993, -0.108075, -0.288097, -1.345702, 65.980835, -38.051437, 36.145340
1648228499.214294, -1.093851, -5.789329, -1.485452, -0.073535, -0.266339, -1.309230, 68.487503, -37.644470, 35.840958
1648228499.247617, -0.626982, -7.087136, -0.959626, -0.022772, -0.674038, -1.097263, 69.816513, -37.335846, 36.165817
1648228499.280964, -0.861913, -7.857471, -0.935834, -0.010220, -1.089801, -0.823395, 70.950363, -37.015228, 35.264618
1648228499.314345, -1.641525, -8.437167, -1.392228, 0.016059, -1.317025, -0.435212, 71.322311, -37.119904, 34.363632
1648228499.347624, -3.002030, -9.003695, -1.701679, 0.059335, -1.162911, -0.293233, 71.561218, -37.320160, 33.792145
1648228499.381019, -3.857209, -10.044574, -1.255459, 0.056432, -0.766651, -0.230833, 71.522934, -37.371353, 33.575531
1648228499.414291, -4.138527, -11.021109, -1.223736, 0.133260, -0.277223, -0.354030, 72.219315, -37.762390, 33.275803
1648228499.447689, -3.018490, -11.818228, -1.168221, 0.201850, 0.048921, -0.300831, 72.763489, -38.140747, 33.789810
1648228499.481010, -1.586159, -11.749545, -0.788740, 0.215198, 0.187681, -0.102626, 73.167770, -38.516251, 34.385651
1648228499.514278, -0.288202, -12.799103, 0.412252, 0.159190, -0.200347, 0.379498, 72.732498, -39.593292, 34.446304
1648228499.547766, 0.603189, -13.546992, 0.593313, 0.069209, -0.266483, 0.821190, 71.559616, -40.341690, 34.741821
1648228499.580950, -0.421978, -12.237663, -0.654066, 0.119424, -0.275939, 0.889639, 70.054749, -41.447769, 34.989563
1648228499.614286, -1.224784, -12.019790, -0.091129, -0.002481, 0.561527, 0.765578, 68.655319, -42.162720, 34.965622
1648228499.647621, -1.955913, -11.212795, 0.373047, -0.152892, 1.341316, 0.644216, 67.411926, -43.230728, 35.451538
1648228499.680945, -1.238850, -10.604368, -0.172981, -0.170741, 1.728361, 0.646393, 66.770462, -43.653107, 35.883789
1648228499.714287, -0.555305, -9.517849, -0.144101, -0.279791, 1.576564, 0.657943, 65.824570, -44.152695, 36.285049
1648228499.747610, -0.251840, -7.707384, 0.005088, -0.361487, 1.174504, 0.617212, 64.573120, -44.743347, 36.211807
1648228499.780943, -0.329352, -5.707477, 0.213234, -0.444560, 0.839543, 0.580058, 63.671432, -45.059311, 35.729523
1648228499.814289, -0.337882, -5.246893, 0.351349, -0.556141, 0.627021, 0.673985, 62.429932, -45.304123, 35.246017
1648228499.847614, -0.863409, -5.904849, 0.383072, -0.630324, 0.304536, 0.755265, 60.680817, -45.579926, 33.768372
1648228499.880954, -2.273893, -7.113173, 0.200514, -0.619925, -0.029524, 0.541413, 59.535080, -45.834366, 33.168304
1648228499.914287, -3.079991, -7.979724, -0.194230, -0.484112, -0.258461, 0.237537, 58.565460, -45.763824, 32.296295
1648228499.946856, -3.560328, -8.766818, -0.552462, -0.208074, 0.051212, -0.000120, 57.923264, -45.854172, 31.770126
1648228499.980956, -3.094655, -9.918280, -0.702698, -0.056162, 0.492658, 0.216207, 57.545212, -46.194107, 31.302490
1648228500.013426, -3.088071, -13.967024, -1.120337, 0.104264, 0.093830, 0.546749, 56.249619, -46.463730, 31.800400
1648228500.047649, -4.652233, -13.247417, -2.116774, 0.131077, -0.590689, -0.069078, 55.180023, -46.712372, 31.895950
1648228500.080640, -3.214066, -12.468104, -2.622698, 0.120998, 0.168988, -0.186153, 55.019669, -46.676010, 32.258316
1648228500.114278, -1.083975, -11.312603, -1.951125, 0.142588, 0.451466, 0.017792, 54.813492, -46.719589, 32.265564
1648228500.147645, -0.398934, -10.537330, -2.629731, 0.369623, -0.197556, -0.383673, 54.906357, -46.801514, 32.947540
1648228500.180952, -0.429460, -11.044153, -2.637662, 0.389085, -0.635943, -0.590517, 55.364151, -46.770020, 34.026138
1648228500.214285, -1.406444, -9.848100, -2.461688, 0.326587, -0.222780, -0.758148, 56.262848, -46.773590, 34.539062
1648228500.247621, -0.701052, -9.301174, -1.670554, 0.306289, -0.126847, -0.767786, 57.182144, -46.892776, 34.763596
1648228500.280950, -0.687435, -8.115446, -1.025018, 0.118921, -0.778024, -0.937616, 57.963852, -46.555756, 35.358017
1648228500.314283, -1.011849, -5.861455, -0.876427, 0.046731, -0.905783, -0.942377, 59.616089, -46.321671, 35.229660
1648228500.347620, -1.800440, -5.601384, -0.824653, -0.009005, -0.754081, -0.829471, 60.568069, -46.125214, 35.059540
1648228500.380946, -2.201618, -6.446538, -0.745495, 0.012101, -0.594963, -0.813394, 61.431351, -45.927017, 35.359360
1648228500.414282, -2.803161, -8.327782, -0.751779, 0.062331, -0.608811, -0.701664, 62.491104, -45.750580, 35.177856
1648228500.447628, -3.839551, -8.453477, -1.313818, 0.170726, -0.547871, -0.686180, 63.277679, -45.554153, 35.319672
1648228500.480958, -4.283077, -8.041226, -1.216853, 0.169839, 0.046842, -0.534561, 64.027618, -45.310333, 35.673477
1648228500.514296, -3.840449, -8.949975, -0.963367, 0.065460, 0.545423, -0.224205, 64.464890, -44.960861, 35.914490
1648228500.547626, -1.730709, -11.117026, -1.458069, 0.106175, 0.583940, 0.133919, 64.224350, -45.137466, 36.648972
1648228500.580967, -0.678008, -12.865392, -1.507599, 0.161169, 0.074920, 0.105562, 63.718307, -44.951965, 37.014130
1648228500.614290, 0.010774, -12.908039, -1.396119, 0.121583, -0.373150, -0.141715, 63.480988, -44.895691, 37.230896
1648228500.647642, -1.482011, -14.334534, -1.175703, 0.128103, 0.195390, -0.230282, 63.797104, -44.674683, 37.483124
1648228500.680977, -0.284311, -13.602208, -0.350451, 0.099385, 0.888103, 0.078521, 63.861038, -44.563110, 38.089203
1648228500.714289, 1.058536, -11.467178, 0.232537, 0.068385, 0.695508, 0.402486, 63.497101, -44.319885, 38.568527
1648228500.747183, -0.522385, -11.255441, 0.415544, -0.142696, 0.382500, 0.636293, 62.609756, -44.137878, 38.819977
1648228500.780954, -1.052401, -10.856358, -0.879570, -0.084385, 0.705309, 0.913120, 61.171646, -44.081985, 38.552628
1648228500.813956, -0.957681, -9.876830, -1.398812, -0.072761, 1.136551, 1.059775, 59.916138, -44.202698, 38.571228
1648228500.847633, -0.461782, -7.167492, -1.228375, -0.195811, 1.154261, 0.925811, 58.111404, -43.780502, 38.837479
1648228500.880971, -0.366163, -6.011990, -0.700154, -0.364102, 0.939548, 0.887441, 57.142853, -43.748169, 38.428207
1648228500.914283, -0.470610, -5.691766, -0.166397, -0.649407, 0.560584, 0.978057, 55.768951, -43.343002, 37.664749
1648228500.947683, -0.945111, -6.428431, -0.125546, -0.814060, 0.230223, 1.071162, 54.012695, -42.973587, 36.206833
1648228500.980965, -3.058892, -7.669825, -0.743100, -1.040243, -0.278047, 0.718491, 52.737503, -42.624954, 34.894211
1648228501.014295, -3.824887, -7.440131, -2.100912, -0.786172, -0.225089, 0.126221, 52.194778, -42.025543, 33.368317
1648228501.047739, -3.326444, -7.297078, -1.810615, -0.673674, 0.483672, 0.193118, 52.021988, -41.957230, 32.412201
1648228501.080957, -3.177704, -8.313865, -1.011849, -0.618323, 0.915902, 0.248869, 52.312927, -41.143341, 31.256821
1648228501.114289, -3.185785, -10.599430, -0.818667, -0.332962, 0.531190, 0.273776, 52.176086, -41.074295, 30.513611
1648228501.146970, -3.638588, -12.326847, -1.202338, -0.116391, -0.258986, -0.118798, 52.198196, -40.788849, 30.500961
1648228501.180319, -1.634791, -12.495488, -2.531868, 0.187695, -0.708682, -0.225611, 52.679276, -41.200562, 30.397491
1648228501.213633, -2.536058, -15.041123, -3.106626, 0.559412, -0.987711, -0.333205, 52.904755, -41.368774, 31.391205
1648228501.246997, -1.927183, -13.315053, -3.965845, 0.750514, -1.037703, -0.897011, 53.420166, -41.591141, 32.575546
1648228501.280353, 0.428562, -8.966584, -4.837484, 0.670889, -0.169602, -1.008406, 55.354248, -42.145493, 33.930481
1648228501.313623, 0.775123, -9.570971, -3.498078, 0.479242, 0.550602, -0.670546, 56.549561, -42.618835, 34.539841
1648228501.346938, 0.399083, -10.772112, -2.052280, 0.545905, -0.216133, -0.822009, 57.973099, -43.061859, 35.502838
1648228501.380272, 0.861015, -9.421034, -1.115548, 0.550259, -1.134675, -0.802708, 59.404083, -43.224777, 36.190002
1648228501.413578, -0.271293, -7.047632, -1.174805, 0.262726, -1.607927, -0.841331, 60.405304, -43.270660, 36.603577
1648228501.446932, -1.227477, -6.186168, -1.615936, 0.081563, -1.515830, -0.889330, 61.230255, -43.147339, 36.468475
1648228501.481024, -2.079963, -6.627749, -1.591396, -0.037705, -1.241672, -0.859833, 62.318481, -42.922150, 36.060120
1648228501.514293, -2.387917, -7.463325, -1.374721, -0.066327, -0.872467, -0.848555, 63.837296, -42.976822, 35.379181
1648228501.547626, -2.248155, -7.867496, -1.092654, -0.025421, -0.676022, -0.835763, 65.010406, -42.695831, 35.233353
1648228501.580088, -2.706495, -9.010728, -0.873135, -0.116246, -0.688982, -0.783354, 66.137924, -42.227936, 34.766296
1648228501.614292, -2.801964, -8.781483, -0.936881, -0.210631, -0.632703, -0.717973, 67.347626, -42.256943, 34.121017
1648228501.647650, -3.413982, -9.822512, -1.548300, -0.157984, -0.698689, -0.627066, 68.301422, -41.917892, 33.753616
1648228501.680960, -3.119495, -10.053402, -2.435352, -0.011412, -0.385984, -0.400043, 68.887177, -41.836334, 33.153809
1648228501.714292, -2.484732, -11.022456, -2.502839, 0.109235, 0.259476, -0.165053, 69.544724, -42.142532, 33.186081
1648228501.747642, -1.245135, -12.394034, -2.041805, 0.219565, 0.406550, 0.024570, 69.945312, -42.365433, 33.584229
1648228501.780188, -0.865504, -14.838364, -1.048211, 0.270776, 0.404301, 0.240396, 69.733887, -43.055359, 34.137466
1648228501.813884, -0.518644, -13.823971, -0.776769, 0.206852, 0.948062, 0.319498, 69.610397, -43.391144, 34.355743
1648228501.847635, 0.211887, -11.598261, -1.222689, 0.159590, 1.767303, 0.371821, 69.594589, -44.092224, 35.902725
1648228501.880961, 1.207725, -11.293449, -0.638953, -0.108860, 2.412418, 0.642159, 69.168503, -44.552673, 36.746201
1648228501.914302, 2.230797, -10.738892, -0.400580, -0.237246, 2.162184, 0.908266, 68.479370, -44.914886, 37.620529
1648228501.947625, 2.608034, -9.404424, -0.587777, -0.325651, 1.415641, 1.197818, 66.385971, -45.778259, 37.974670
1648228501.980961, 1.756446, -8.011597, -0.607828, -0.374052, 0.322043, 1.390867, 64.229004, -46.025513, 37.462387
1648228502.014294, 0.337582, -7.076063, -0.306009, -0.474789, -0.201073, 1.272690, 61.773422, -46.348938, 37.133728
1648228502.047636, -0.976834, -5.973533, -0.630124, -0.524849, -0.310387, 1.126609, 59.087479, -46.572495, 35.571899
1648228502.080962, -1.470638, -5.725135, -1.041178, -0.452446, -0.068277, 1.122456, 57.123016, -46.671936, 34.477280
1648228502.114298, -2.075623, -6.210110, -1.126173, -0.335704, 0.093328, 1.007790, 55.136353, -46.718399, 33.998306
1648228502.147627, -2.716970, -7.055263, -0.886154, -0.243424, 0.182589, 0.770917, 53.610382, -46.745651, 33.443542
1648228502.181056, -2.914492, -7.705588, -0.756119, -0.189671, 0.233677, 0.561243, 52.356232, -46.720428, 32.887085
1648228502.214311, -3.124732, -8.976012, -0.865205, -0.062066, 0.057869, 0.414686, 51.650421, -46.566742, 32.977264
1648228502.247634, -3.770269, -12.784887, -0.854431, 0.079412, -0.305791, 0.249893, 50.877930, -46.714722, 32.737534
1648228502.280477, -5.963059, -14.121750, -1.141885, 0.116370, -0.785909, -0.459131, 50.872849, -46.777237, 32.903824
1648228502.314300, -4.288314, -12.101043, -2.808997, 0.291346, -0.089671, -0.942056, 52.063889, -46.875900, 33.294067
1648228502.347664, -3.040636, -13.414712, -1.992724, 0.441328, 0.249273, -0.767428, 53.628662, -47.332825, 33.977814
1648228502.380964, -2.437297, -12.064981, -3.191471, 0.692371, 0.175477, -0.818841, 55.501358, -47.597610, 35.452911
1648228502.414299, -0.138564, -9.041553, -3.597737, 0.834329, 0.594428, -0.379617, 56.370789, -47.900436, 37.020370
1648228502.447645, 2.025345, -8.685266, -1.656788, 0.562352, 0.497288, 0.040777, 56.625259, -47.722031, 37.757446
1648228502.480965, 1.406145, -9.887754, -1.076194, 0.450422, -0.301828, -0.323660, 56.778610, -47.804108, 38.775421
1648228502.514301, 0.982670, -9.956138, -1.081431, 0.332336, -1.312605, -0.948116, 58.152817, -47.806946, 39.273407
1648228502.547681, 0.626982, -8.862586, -1.314417, 0.057801, -1.148710, -1.286168, 59.793549, -47.773941, 39.538956
1648228502.580967, -0.675165, -7.426215, -1.619677, -0.138053, -0.765038, -1.389561, 61.850616, -47.647934, 39.496170
1648228502.614313, -1.590498, -7.031920, -0.981922, -0.247775, -0.549270, -1.303597, 64.598587, -46.988800, 38.717163
1648228502.647633, -1.654543, -7.295432, -0.537947, -0.264179, -0.550858, -1.178846, 66.480820, -46.609833, 38.028351
1648228502.680965, -2.056919, -7.727435, -0.354342, -0.267224, -0.672312, -1.005088, 68.103867, -46.153473, 37.651688
1648228502.714305, -1.958008, -7.675661, -0.738761, -0.145611, -0.604760, -0.697631, 69.717758, -45.569443, 36.374146
1648228502.747628, -1.415123, -7.578247, -0.754772, -0.060802, -0.472903, -0.045931, 70.007965, -45.500931, 35.627747
1648228502.781041, -2.233790, -9.757120, -0.913538, 0.000180, -0.695732, 0.219366, 69.488022, -45.560104, 35.253723
1648228502.814285, -2.771588, -11.461043, -1.610699, 0.190886, -0.732861, 0.170594, 68.768967, -45.749939, 34.868622
1648228502.847634, -2.015918, -12.177658, -1.920000, 0.335158, -0.186120, 0.197541, 68.412048, -45.952469, 35.066940
1648228502.881022, -1.116895, -13.949217, -1.965041, 0.401869, -0.116774, 0.211437, 67.834427, -46.312836, 35.819748
1648228502.914297, -0.610821, -16.313192, -0.845752, 0.348171, -0.006810, 0.205267, 67.541000, -46.374496, 36.056839
1648228502.947632, 0.232986, -12.770971, -0.675015, 0.210575, 0.844821, 0.287698, 67.138489, -46.605759, 37.213425
1648228502.980978, 1.370980, -10.757896, -0.604985, 0.070443, 1.320101, 0.551348, 66.700607, -46.818344, 37.453339
1648228503.014368, 0.908749, -10.688165, 0.275333, -0.221423, 1.210594, 0.669325, 65.804657, -46.986984, 37.901535
1648228503.047638, 0.668431, -9.328558, -0.119411, -0.262817, 1.033646, 0.705443, 64.603027, -47.048813, 37.939056
1648228503.080969, 0.170437, -8.765322, -0.266804, -0.297774, 0.981252, 0.895169, 63.675842, -47.314560, 37.465775
1648228503.114302, -0.369006, -7.678504, -0.264260, -0.359542, 0.954453, 0.920175, 62.213638, -47.367096, 37.348267
1648228503.147637, -0.477793, -6.950068, -0.048333, -0.393458, 0.780949, 0.979514, 60.393509, -47.575272, 36.681717
1648228503.181093, -0.743250, -6.559514, 0.023044, -0.460063, 0.385519, 1.007194, 58.837875, -47.353088, 36.033951
1648228503.214304, -1.593640, -6.681918, -0.106542, -0.470295, 0.124311, 0.924910, 57.375000, -47.539246, 35.129990
1648228503.247638, -2.201319, -7.139809, -0.258873, -0.386143, 0.094463, 0.795504, 55.903183, -47.389023, 34.221588
1648228503.280969, -2.262221, -8.155100, 0.004040, -0.193552, 0.535464, 0.770553, 54.353745, -47.271652, 33.739838
1648228503.313877, -2.218527, -8.424447, 0.403573, -0.123022, 0.538574, 0.711908, 53.516357, -47.211746, 33.081116
1648228503.347681, -2.127996, -8.703671, 0.207547, -0.141112, 0.085537, 0.628309, 52.407990, -47.196289, 33.245255
1648228503.380975, -2.846706, -10.734553, -0.344765, -0.089939, -0.522582, 0.270368, 51.333160, -47.197372, 32.283310
1648228503.414315, -3.985298, -12.538135, -1.221941, 0.015295, -0.708378, -0.186937, 50.901230, -47.205368, 31.960800
1648228503.447659, -3.876811, -13.724761, -2.312649, 0.137551, -0.443472, -0.724605, 51.604233, -47.336365, 32.488297
1648228503.481038, -3.391985, -15.226075, -2.592172, 0.288019, -0.326617, -1.072634, 53.492508, -47.491669, 32.737198
1648228503.514319, -3.366547, -13.372963, -3.949984, 0.573960, 0.008954, -1.339299, 55.706070, -47.602554, 33.748627
1648228503.547640, 0.759112, -8.904485, -2.931850, 0.512363, 0.923577, -1.039273, 57.702942, -47.903198, 34.944244
1648228503.580976, 2.383278, -8.806921, -0.886752, 0.238366, 0.930031, -0.616647, 59.286316, -47.902023, 35.601410
1648228503.614313, 2.835483, -9.135226, -1.329231, 0.154005, -0.560824, -0.715755, 60.878571, -47.817566, 36.061920
1648228503.647647, 1.336264, -8.530690, -1.054047, 0.088872, -1.521747, -0.929900, 61.740967, -47.606918, 36.028152
1648228503.680983, -0.271443, -7.218967, -1.469890, -0.110810, -1.345820, -1.006860, 62.930969, -47.507446, 35.475357
1648228503.713671, -1.006463, -6.245125, -1.571793, -0.127803, -0.813067, -0.990679, 64.836792, -47.173523, 34.662491
1648228503.746808, -1.011550, -6.256498, -1.117494, -0.155277, -0.721988, -0.797233, 65.886765, -46.985748, 34.262405
1648228503.780104, -1.033397, -7.268048, -0.929698, -0.159190, -0.955119, -0.620740, 66.731918, -46.687180, 33.470673
1648228503.813987, -1.731307, -8.047211, -0.843358, -0.076576, -1.223334, -0.477221, 67.269241, -46.105164, 32.783600
1648228503.847649, -2.829497, -8.441656, -0.919224, -0.118481, -1.148165, -0.564598, 67.523483, -46.137817, 31.924194
1648228503.880978, -2.814384, -9.186851, -1.796549, -0.058967, -0.732697, -0.538140, 68.153534, -45.964981, 31.500961
1648228503.914314, -2.250998, -10.034398, -2.474707, 0.066519, -0.273953, -0.543278, 68.889740, -45.583557, 31.059952
1648228503.947645, -1.741482, -11.183017, -2.421136, 0.184574, -0.071807, -0.446819, 69.227615, -45.145584, 31.157318
1648228503.980975, -0.540042, -11.840973, -1.873612, 0.282741, 0.075746, -0.239022, 69.832245, -45.201492, 31.316299
1648228504.013595, 0.081403, -14.488811, -1.014842, 0.340245, -0.003627, 0.066369, 69.801056, -45.338272, 31.679382
1648228504.046813, -0.103699, -17.128867, -0.625336, 0.346447, 0.155145, 0.201700, 69.154297, -45.416580, 32.585953
1648228504.080983, 1.105373, -12.089072, -1.437120, 0.398452, 1.162828, 0.296064, 69.168060, -45.424088, 33.454193
1648228504.114309, 1.521814, -11.288362, -0.862212, 0.198100, 1.834845, 0.410255, 68.971390, -45.702438, 34.906586
1648228504.147656, 2.085799, -10.224289, -0.570718, -0.005595, 1.567661, 0.663301, 68.199768, -45.646133, 36.018280
1648228504.181069, 1.231069, -8.849568, -0.171185, -0.065304, 1.280170, 0.801738, 67.405640, -45.834915, 36.814819
1648228504.214315, 0.510863, -7.704840, -0.040103, -0.215449, 1.103107, 0.936613, 66.377686, -45.967010, 36.742615
1648228504.247645, -0.051775, -6.758532, 0.162806, -0.368442, 0.974401, 1.072674, 64.325195, -45.975006, 37.059830
1648228504.280974, -0.268450, -6.381745, 0.401029, -0.502501, 0.923307, 1.184787, 62.837479, -45.935776, 36.806305
1648228504.314306, -0.483778, -6.504298, 0.325312, -0.569182, 0.806710, 1.235730, 61.032684, -46.003296, 35.995346
1648228504.347646, -0.648080, -6.649297, 0.088885, -0.501994, 0.467916, 1.214445, 59.447906, -45.705017, 35.237656
1648228504.380991, -1.055244, -6.438457, 0.207847, -0.513921, 0.070100, 1.149204, 56.956055, -45.607727, 33.981308
1648228504.414315, -1.661576, -8.084172, -0.278775, -0.434892, -0.241221, 1.184763, 55.200104, -45.322784, 33.724854
1648228504.447649, -2.671181, -10.172813, -0.556951, -0.257458, -0.279477, 0.978559, 53.395493, -44.732849, 32.762848
1648228504.481031, -3.627515, -11.709741, -0.888548, -0.171099, -0.149698, 0.175111, 52.368256, -44.077057, 32.720810
1648228504.514309, -4.257040, -13.422044, -2.159121, -0.095633, 0.193865, -0.169850, 52.905228, -44.127884, 32.500046
1648228504.547708, -4.025252, -12.892626, -2.064700, -0.104932, 0.371211, -0.834806, 53.975128, -43.985626, 32.620392
1648228504.580975, -1.840692, -14.465916, -2.241422, -0.006824, 0.490730, -1.170231, 56.971558, -43.542908, 32.883713
1648228504.614309, -0.484227, -12.788179, -3.148824, 0.299395, 0.381869, -1.289333, 59.095596, -43.265717, 33.710434
1648228504.647672, 2.592172, -9.529372, -2.464831, 0.556419, 0.444657, -0.924162, 61.117508, -43.337494, 34.254700
1648228504.680980, 4.532523, -8.973617, -1.292570, 0.519983, 0.034454, -0.108895, 62.121445, -43.146545, 35.568039
1648228504.714312, 2.423082, -10.390536, -1.001076, 0.475148, -1.115305, -0.208207, 62.350220, -43.135651, 36.387680
1648228504.747647, 0.436194, -10.018238, -1.435623, 0.404017, -1.773164, -0.491449, 62.776306, -42.960495, 36.732178
1648228504.780976, -0.497695, -8.116643, -1.446397, 0.264246, -1.327142, -0.732756, 63.608459, -43.013840, 37.158279
1648228504.814367, -1.191115, -6.601861, -1.400159, 0.133658, -1.004586, -0.871011, 64.770081, -42.430939, 36.997650
1648228504.847645, -1.434276, -5.736657, -1.218798, 0.049360, -0.762973, -0.833402, 66.246841, -42.035385, 36.979782
1648228504.880978, -1.869572, -6.088006, -1.209371, 0.142093, -0.726810, -0.812309, 67.372742, -41.702774, 36.878510
1648228504.914314, -2.135478, -6.896049, -0.827197, 0.167268, -0.745472, -0.759263, 68.829437, -40.700180, 36.726334
1648228504.947648, -2.093280, -7.509563, -1.383250, 0.166849, -0.466750, -0.662578, 70.040436, -40.588531, 36.987793
1648228504.980981, -2.076072, -8.691551, -1.325939, 0.147102, -0.126654, -0.611515, 71.086349, -40.001663, 36.861160
1648228505.013793, -1.327585, -9.121609, -1.356764, 0.171833, 0.364406, -0.436424, 72.126190, -39.529770, 37.417740
1648228505.047656, -0.341623, -11.573870, -1.088314, 0.249498, 0.186116, -0.135351, 72.974884, -38.940628, 37.854645
1648228505.081002, -0.772878, -12.778752, -0.720804, 0.222464, -0.307942, -0.107596, 73.235062, -38.726318, 38.070358
1648228505.114330, -0.623241, -11.700015, -1.531242, 0.378905, -0.309396, -0.006259, 73.523972, -38.533722, 38.119644
1648228505.147654, -0.028581, -13.377003, -0.731279, 0.303196, -0.327987, 0.291020, 73.469131, -38.386520, 38.175690
1648228505.180985, 0.099210, -13.494020, -0.256928, 0.157087, -0.067875, 0.430527, 73.302444, -38.405777, 38.582397
1648228505.214395, -0.114922, -11.714829, 0.046088, 0.095129, 0.553640, 0.497698, 73.146194, -38.857864, 39.199570
1648228505.247669, -0.030676, -11.721712, 0.488567, -0.168207, 1.047598, 0.564759, 72.879333, -38.783493, 39.927170
1648228505.280973, 0.660650, -11.308862, -0.057910, -0.290151, 1.598031, 0.781769, 72.473022, -38.976318, 40.063950
1648228505.313958, 0.948702, -10.853066, -0.237325, -0.327213, 1.787945, 1.073338, 71.911621, -39.359467, 40.631439
1648228505.347654, 0.938078, -9.894188, -0.533159, -0.346283, 1.440314, 1.075925, 70.663696, -40.033264, 40.723602
1648228505.380988, 0.698209, -7.784298, -0.260968, -0.292856, 1.073615, 0.999330, 69.800079, -40.437912, 41.173508
1648228505.413666, 0.329951, -6.559963, 0.670227, -0.436145, 0.698628, 0.971691, 68.862671, -40.793625, 41.086166
1648228505.447680, -0.069282, -5.888988, 0.809988, -0.693559, 0.426145, 0.930090, 67.823044, -41.326569, 40.487564
1648228505.481012, -0.809390, -6.008997, 0.265607, -0.690085, 0.305067, 0.876079, 66.568481, -41.456848, 39.048996
1648228505.514332, -1.564312, -6.919841, -0.117316, -0.605279, 0.072305, 0.850952, 65.646133, -41.563919, 38.468613
1648228505.547650, -2.509423, -7.748983, -0.447716, -0.377870, -0.232043, 0.615771, 64.880295, -41.910370, 37.632706
1648228505.580987, -3.170073, -8.278401, -0.607978, -0.177385, -0.306655, 0.302998, 64.245895, -41.846710, 36.944855
1648228505.614319, -3.353079, -9.025691, -0.484227, -0.178968, 0.172189, 0.109873, 64.683990, -42.066864, 36.625656
1648228505.647665, -3.620033, -11.178228, -1.164330, 0.170087, 0.340485, 0.154225, 64.645935, -42.469238, 36.740402
1648228505.680992, -4.411167, -13.612234, -1.069161, 0.285409, 0.251745, -0.344670, 65.386978, -42.890228, 36.952469
1648228505.714338, -1.220744, -13.943531, -1.421258, 0.315351, 0.410482, -0.647794, 66.576385, -42.744415, 37.689026
1648228505.747210, -0.615310, -15.240440, -1.468693, 0.550779, -0.872681, -0.526816, 67.443451, -43.448975, 38.318710
1648228505.780987, -0.892888, -13.041665, -3.059490, 0.684326, -1.071962, -0.745304, 68.248672, -43.414200, 38.932999
1648228505.814321, 0.663942, -9.847052, -2.813486, 0.648988, -0.254783, -0.635257, 69.857880, -43.566589, 39.459167
1648228505.847707, 1.016638, -9.217227, -1.239598, 0.236279, 0.241957, -0.399414, 70.429886, -43.782654, 40.377090
1648228505.880986, 1.037438, -9.806201, -1.025616, 0.175856, -0.611700, -0.575365, 70.930328, -43.717041, 40.381195
1648228505.914377, 0.330998, -9.512462, -0.651821, 0.064673, -1.269192, -0.725289, 72.174820, -43.405624, 39.844162
1648228505.947656, -0.880617, -7.958326, -0.913687, -0.063822, -1.026601, -0.889943, 73.230331, -43.245682, 39.114380
1648228505.980987, -1.311574, -6.129456, -0.847996, 0.079364, -0.684437, -1.089168, 74.400345, -42.683075, 38.582489
1648228506.014324, -0.291195, -6.118532, -0.103250, 0.033088, -1.120749, -0.939022, 76.015656, -42.189209, 37.736450
1648228506.047655, -0.729334, -6.854450, -0.436044, -0.185280, -1.458587, -0.704960, 76.811905, -42.120773, 36.210281
1648228506.080992, -2.157475, -7.310395, -0.954688, -0.146976, -1.196749, -0.500501, 77.268478, -41.736435, 35.323685
1648228506.114323, -2.938733, -7.499687, -1.338209, -0.108525, -0.652041, -0.466398, 77.752029, -41.423172, 33.884613
1648228506.147659, -2.222268, -8.351574, -1.107318, -0.098872, -0.080006, -0.339946, 77.920074, -41.440781, 34.042679
1648228506.181019, -1.681178, -10.070760, -0.918176, 0.013143, 0.033396, -0.028912, 78.313583, -41.717087, 33.679306
1648228506.213997, -1.470788, -11.969961, -0.809390, 0.069377, -0.297351, 0.012290, 77.907837, -42.027985, 33.026459
1648228506.247650, -1.222240, -12.109573, -1.496226, 0.176373, -0.334235, 0.033568, 77.177429, -42.590988, 32.902618
1648228506.281001, -0.483778, -12.747777, -1.354370, 0.346491, -0.382333, 0.237785, 76.737930, -42.919144, 33.258362
1648228506.314329, -0.748936, -14.739304, 0.073771, 0.254908, -0.046067, 0.414479, 75.764114, -43.649704, 33.476608
1648228506.347663, -0.130933, -13.140576, -0.292691, 0.284062, 0.313778, 0.551502, 74.228424, -44.207855, 33.956726
1648228506.380995, -0.060154, -11.446678, -0.349853, 0.194853, 0.656828, 0.555063, 73.157257, -44.557861, 34.802322
1648228506.414333, -0.740557, -11.339388, -0.318578, -0.008025, 1.317922, 0.521491, 72.075378, -45.005188, 35.749084
1648228506.447665, -0.510264, -10.490943, -0.280271, -0.010446, 1.854019, 0.684532, 71.004501, -45.132370, 36.751556
1648228506.481006, -0.439186, -9.966014, -0.005836, -0.093628, 2.050544, 0.772189, 70.015930, -45.490189, 37.348419
1648228506.514322, -0.209493, -8.460959, 0.092326, -0.272125, 1.801322, 0.774029, 68.814377, -45.809937, 37.800430
1648228506.547672, -0.014515, -7.029975, 0.274585, -0.410543, 1.476569, 0.822614, 67.598816, -46.053665, 38.153275
1648228506.581014, -0.136320, -5.919664, 0.622642, -0.607029, 1.149794, 0.878466, 65.788773, -45.893280, 37.260330
1648228506.614337, -0.402525, -6.146365, 0.642245, -0.766497, 0.822128, 0.960627, 64.239120, -46.015640, 36.234650
1648228506.647739, -0.858321, -7.015310, 0.403124, -0.734092, 0.525632, 0.975737, 62.285568, -46.192322, 35.236923
1648228506.680998, -1.645116, -7.769783, 0.157419, -0.523081, 0.061126, 0.806348, 60.518677, -45.758316, 33.910919
1648228506.714329, -1.824831, -8.381801, 0.425420, -0.340767, -0.358829, 0.454267, 59.243057, -45.809402, 32.928497
1648228506.747680, -2.042104, -8.818892, 0.209044, -0.425495, -0.373883, 0.496831, 58.197037, -45.419540, 32.282242
1648228506.780994, -1.722329, -9.979033, -1.260547, -0.281432, -0.627025, 0.777952, 56.242371, -45.226547, 31.483856
1648228506.814336, -3.669862, -12.990489, -1.477971, -0.056735, -1.012797, 0.375661, 55.151459, -45.078461, 31.227814
1648228506.847662, -5.015703, -12.597691, -1.928529, 0.004868, -0.866369, -0.611850, 55.087738, -45.082581, 31.160065
1648228506.881044, -3.603872, -14.334983, -2.309058, 0.180615, -0.352662, -0.596861, 55.476654, -45.032166, 31.638214
1648228506.914331, -1.511340, -13.725360, -3.482366, 0.260304, -0.106777, -0.764036, 56.905029, -44.970413, 32.163040
1648228506.947676, 0.272490, -10.554090, -3.835212, 0.409723, -0.254719, -0.958500, 58.384506, -44.838943, 32.671844
1648228506.980997, 0.314389, -10.881347, -2.095675, 0.297078, -0.384308, -0.770319, 59.581055, -44.851120, 33.333618
1648228507.014339, -1.179893, -10.643573, -1.675343, 0.179994, -0.625966, -0.927762, 61.416336, -44.894791, 33.876434
1648228507.047661, -0.846949, -9.146599, -1.521665, 0.261472, -0.572125, -1.115294, 62.826614, -44.463379, 34.094894
1648228507.080999, -0.691924, -7.404966, -1.022623, 0.147045, -0.373341, -1.247681, 64.351303, -44.349701, 34.329727
1648228507.114332, -0.643142, -5.865644, -1.241992, 0.045651, -0.500363, -1.263022, 66.786743, -43.741592, 34.431778
1648228507.147665, -0.747141, -5.973084, -1.168670, -0.014911, -0.621123, -1.086067, 68.398239, -43.351212, 33.825562
1648228507.180318, -0.971447, -6.834548, -1.057639, 0.026261, -0.522739, -0.929540, 69.805939, -42.908417, 33.715637
1648228507.214352, -1.152359, -7.684490, -1.251120, 0.080186, -0.505436, -0.783955, 71.371185, -42.551895, 33.644302
1648228507.247686, -1.201590, -7.568520, -1.429638, 0.134500, -0.483844, -0.634119, 71.950333, -41.958450, 33.416351
1648228507.281004, -1.241394, -7.741950, -1.181987, 0.135360, -0.333978, -0.457782, 72.736649, -41.811310, 33.559036
1648228507.314333, -1.092504, -9.240721, -0.943615, 0.134121, -0.286474, -0.235628, 73.259811, -41.511887, 33.485870
1648228507.347666, -1.373075, -11.308563, -0.931793, 0.150307, -0.356259, -0.072559, 73.391357, -41.516876, 33.314850
1648228507.381033, -1.538574, -12.243199, -1.285686, 0.258623, -0.275917, -0.041421, 73.506638, -41.649002, 33.378723
1648228507.414418, -0.565032, -11.711686, -1.406893, 0.325322, -0.363969, 0.023791, 73.493469, -41.739090, 33.301605
1648228507.447667, -0.969203, -14.338724, -0.449212, 0.341829, -0.288231, 0.181236, 73.345215, -41.898514, 33.977402
1648228507.480999, -0.596007, -16.064195, -0.274585, 0.320743, 0.467556, 0.594452, 72.537338, -42.332382, 34.494095
1648228507.514333, -0.013617, -13.251457, -0.670077, 0.188201, 0.794978, 0.531954, 72.099167, -42.922318, 35.673248
1648228507.547665, 0.526126, -10.525060, -1.424849, 0.099100, 0.978516, 0.550591, 71.771835, -43.287567, 36.558701
1648228507.581077, -0.084246, -10.489297, -0.491260, -0.156193, 1.523673, 0.759879, 71.121170, -43.783417, 37.289398
1648228507.614337, -0.016161, -10.197952, 0.015263, -0.237635, 1.661077, 0.959965, 70.300476, -44.190887, 37.549423
1648228507.647132, -0.338181, -9.515306, 0.093224, -0.374676, 1.489447, 0.990170, 69.324432, -44.540161, 38.035889
1648228507.681027, -0.085144, -7.745991, -0.116867, -0.520152, 1.177432, 0.976350, 68.013290, -45.127716, 37.689087
1648228507.714349, 0.173879, -6.451326, 0.098013, -0.650510, 1.028464, 1.099993, 66.589767, -45.424377, 37.261765
1648228507.747702, 0.040552, -6.036979, 0.292242, -0.764216, 0.806647, 1.194381, 65.155563, -45.663773, 36.114120
1648228507.780590, -0.444274, -6.381296, 0.156970, -0.760036, 0.431539, 1.192055, 62.737625, -45.659775, 34.670334
1648228507.814337, -1.038335, -6.578817, -0.006883, -0.610957, -0.057606, 0.943940, 61.393814, -46.144241, 33.609146
1648228507.847692, -1.429488, -7.444471, 0.018405, -0.451431, -0.161054, 0.788068, 59.875290, -46.069656, 32.950272
1648228507.880638, -2.215684, -8.037634, 0.209343, -0.392201, -0.222808, 0.583319, 58.732681, -46.298553, 31.791794
1648228507.914343, -2.684349, -9.130737, -0.702997, -0.029491, -0.558195, 0.226221, 58.045135, -46.455872, 31.556290
1648228507.947711, -2.941277, -11.588684, -0.902165, -0.040061, -1.195830, 0.240852, 57.317245, -46.250626, 31.465149
1648228507.981080, -5.265598, -13.060520, -2.060959, -0.060761, -1.701216, -0.010696, 56.681793, -46.469864, 31.273758
1648228508.014343, -5.788581, -13.430424, -3.128623, 0.093949, -0.843591, -0.488729, 56.926941, -46.745575, 30.985153
1648228508.047757, -6.331317, -15.783326, -2.041955, 0.043195, 0.019740, -0.557351, 57.504517, -46.721924, 31.031540
1648228508.081032, -3.492242, -12.505514, -3.350386, 0.177760, 0.660582, -0.784180, 59.077606, -46.775513, 31.134598
1648228508.114353, -0.259621, -10.803685, -3.307739, 0.394245, 1.204044, -0.832526, 61.749237, -46.635269, 31.436752
1648228508.147715, 1.776198, -9.216629, -2.572869, 0.366518, 0.822783, -0.604971, 63.268890, -46.858047, 32.530533
1648228508.181069, 1.760486, -7.630620, -1.760187, 0.415687, 0.162198, -0.733352, 64.374802, -46.894333, 32.910538
1648228508.214393, 1.217152, -7.567323, -0.752228, 0.288888, -0.589076, -0.818277, 66.293961, -46.699707, 33.552948
1648228508.247731, -0.071527, -7.238121, -1.233163, 0.110742, -1.121909, -0.901289, 67.443924, -46.730606, 33.316437
1648228508.281007, -1.984644, -6.704662, -1.510292, 0.066110, -0.858436, -1.091601, 68.711960, -46.256226, 33.026337
1648228508.314339, -2.339135, -6.574627, -1.250671, 0.090530, -0.511186, -1.122986, 70.801727, -45.851440, 32.480652
1648228508.347686, -2.202217, -7.398382, -1.115848, 0.132079, -0.305192, -0.963236, 72.380310, -45.444901, 32.504211
1648228508.381017, -2.090138, -7.936779, -1.204134, 0.190530, -0.259876, -0.853277, 73.705368, -44.870361, 32.454086
1648228508.414342, -1.878700, -7.454945, -1.211316, 0.202455, -0.185059, -0.705607, 75.224472, -44.576019, 32.498993
1648228508.447686, -1.412429, -7.923910, -1.211167, 0.161130, -0.053886, -0.260864, 75.953583, -44.388016, 32.603546
1648228508.480365, -1.425597, -9.709834, -1.142184, 0.177534, -0.213461, -0.051381, 76.116837, -44.447540, 32.727448
1648228508.513901, -1.643320, -11.216984, -1.390283, 0.223866, -0.392647, -0.016912, 76.002304, -44.447525, 32.620407
1648228508.547682, -1.896357, -12.060043, -1.750610, 0.254870, -0.002052, 0.006874, 75.995407, -44.829575, 32.731689
1648228508.581029, -1.205630, -13.173197, -1.817798, 0.296883, -0.053686, 0.030699, 75.862076, -44.857635, 32.869629
1648228508.613853, -1.050755, -16.223110, -0.486771, 0.250089, 0.140475, 0.122450, 75.964203, -44.959274, 33.092865
1648228508.647729, -0.639850, -14.365958, -0.764648, 0.250026, 0.900315, 0.328972, 75.551910, -45.481995, 34.371185
1648228508.681039, 0.739359, -10.459669, -0.969502, 0.193061, 1.358493, 0.464580, 75.440567, -45.937561, 35.257706
1648228508.714330, 0.999130, -10.797101, 0.798616, -0.188298, 1.566557, 0.695453, 74.871765, -46.276154, 36.086212
1648228508.747696, 1.130512, -10.401459, 0.557550, -0.365653, 1.650525, 0.906524, 73.799927, -46.729584, 36.476898
1648228508.781028, 1.098789, -9.858425, 0.258574, -0.379068, 1.050778, 1.091485, 72.048340, -47.565475, 36.626968
1648228508.814345, 0.722750, -8.219743, -0.197222, -0.473827, 0.393595, 1.056958, 70.441589, -48.092484, 36.249771
1648228508.847706, 0.017059, -6.884228, -0.319327, -0.537133, 0.070410, 1.029136, 68.642670, -48.357193, 35.352249
1648228508.881012, -0.957082, -6.145167, -0.033220, -0.689811, 0.042170, 0.886783, 66.563171, -48.713013, 34.369507
1648228508.914349, -1.675792, -6.043115, -0.017059, -0.830961, 0.157714, 0.663099, 65.272018, -48.828598, 32.612564
1648228508.947640, -2.031929, -6.773496, -0.803255, -0.781156, 0.458157, 0.604461, 64.333862, -48.760696, 31.264511
1648228508.980321, -2.104204, -7.407211, -1.150414, -0.439753, 0.808296, 0.734308, 63.251694, -48.880417, 30.592010
1648228509.014349, -2.178724, -8.088661, -0.682198, -0.262651, 0.558453, 0.722763, 62.220276, -48.937485, 30.141800
1648228509.047761, -1.924788, -8.867075, -0.426168, -0.257485, -0.044702, 0.560674, 61.230820, -49.207397, 30.120316
1648228509.081080, -2.039710, -9.591172, -0.922067, -0.189045, -0.828922, 0.483856, 59.285736, -49.160446, 29.064926
1648228509.114372, -3.619434, -10.963648, -1.519570, -0.057724, -1.252959, 0.156862, 58.444778, -49.565994, 28.660995
1648228509.147737, -5.306449, -11.611579, -2.690185, 0.154151, -0.903300, -0.462303, 58.131165, -49.766815, 29.060669
1648228509.181090, -2.404227, -12.276868, -2.290802, 0.380569, 0.217878, -0.289772, 58.686432, -50.193619, 29.257767
1648228509.214391, -1.816900, -14.942512, -0.691924, 0.370157, -0.273271, 0.272731, 57.999115, -50.517792, 30.458649
1648228509.247688, -2.882020, -13.321188, -2.803311, 0.454215, -1.818121, -0.524187, 57.668823, -51.050247, 31.214493
1648228509.281124, -1.815703, -10.252420, -3.975422, 0.621200, -1.799986, -0.870438, 58.206390, -51.146561, 32.155777
1648228509.314355, -1.700631, -9.314342, -3.239056, 0.406892, 0.351018, -0.889403, 59.803406, -51.491592, 33.794174
1648228509.347706, -1.158494, -8.271967, -1.848922, 0.187224, 1.024120, -1.068413, 61.942871, -51.473816, 34.746994
1648228509.381026, -0.124947, -7.781754, -0.899472, 0.149405, 0.557515, -1.345320, 64.293762, -51.358246, 35.397354
1648228509.414372, 0.104148, -7.057358, -0.399532, 0.003724, -0.446362, -1.357057, 67.322723, -50.819107, 36.057129
1648228509.447697, -1.030853, -6.815843, -0.392948, -0.154864, -0.756498, -1.279003, 69.314148, -50.429825, 35.346893
1648228509.480266, -1.989582, -6.992116, -1.079336, -0.124926, -0.801150, -1.154548, 70.851013, -49.766800, 34.712921
1648228509.514337, -2.107346, -7.886500, -1.291223, -0.059268, -0.507422, -1.016397, 72.429550, -49.443039, 34.594131
1648228509.547699, -1.878401, -8.208670, -1.468693, 0.017523, -0.159838, -0.858007, 74.177353, -48.996719, 34.860001
1648228509.581042, -1.812860, -7.974936, -1.405247, 0.096517, -0.008469, -0.722423, 75.371857, -48.729660, 35.144455
1648228509.614365, -1.356465, -8.137891, -1.195904, 0.176134, 0.049434, -0.630654, 76.142578, -48.709183, 35.413422
1648228509.647694, -1.134852, -9.453206, -0.920870, 0.198904, -0.109512, -0.433398, 77.292847, -48.709061, 36.136307
1648228509.681046, -0.561889, -10.810269, -1.246332, 0.241213, -0.248194, -0.249594, 77.662857, -48.860413, 36.256760
1648228509.714375, -0.465971, -11.674277, -1.451185, 0.312410, -0.174330, -0.033700, 77.578079, -49.349564, 37.190186
1648228509.747692, 0.185551, -11.999140, -1.591396, 0.351096, -0.472011, 0.180178, 77.045303, -49.882156, 37.401627
1648228509.781070, 0.650175, -15.369727, -0.019752, 0.190726, -0.584953, 0.425737, 76.212845, -50.395981, 37.963104
1648228509.814359, 0.405219, -14.376882, -0.255431, 0.058533, -0.321038, 0.598356, 75.018402, -51.148148, 38.300232
1648228509.847716, 0.396689, -11.718420, -1.030554, 0.000099, 0.413793, 0.669829, 73.766998, -51.521820, 38.518509
1648228509.881017, 0.817021, -11.411962, -0.866102, -0.128241, 0.794622, 0.931055, 71.512527, -52.228622, 39.161301
1648228509.914367, 0.407314, -10.564564, -0.757765, -0.149198, 0.976883, 1.095392, 69.468246, -52.734238, 39.928345
1648228509.947689, -0.283114, -9.361029, -0.591218, -0.148924, 0.966946, 1.122330, 67.278229, -53.271484, 40.215073
1648228509.981022, -0.668431, -8.253412, -0.295684, -0.236666, 0.967629, 1.055757, 64.485565, -53.409256, 40.093460
1648228510.014364, -0.833631, -6.831106, 0.112976, -0.416238, 0.963473, 1.078930, 62.213882, -53.567352, 40.080704
1648228510.047693, -1.081581, -6.204125, 0.272041, -0.621341, 0.880772, 1.019539, 60.247208, -54.158844, 39.655365
1648228510.081021, -1.102979, -6.122123, 0.142754, -0.661941, 0.747315, 0.923888, 57.625397, -54.121460, 38.019928
1648228510.113820, -1.171812, -6.877045, -0.071527, -0.617091, 0.526803, 0.888735, 55.467300, -54.132172, 37.292282
1648228510.147711, -1.352125, -7.657704, -0.360327, -0.499904, 0.193383, 0.894387, 53.720703, -54.355026, 36.365585
1648228510.181030, -1.752406, -8.013094, -0.545279, -0.310747, -0.238573, 0.783217, 50.997757, -54.166107, 35.723038
1648228510.214371, -2.561796, -8.268525, -0.926706, -0.178237, -0.494154, 0.617365, 49.319138, -54.394516, 35.530441
1648228510.247776, -3.926491, -10.139444, -1.377115, -0.017111, -0.660780, 0.580887, 47.456085, -54.839050, 35.697723
1648228510.280991, -5.504419, -12.140847, -1.763778, 0.215663, -0.348009, 0.142122, 46.353577, -54.820099, 36.156952
1648228510.314393, -5.627870, -12.170176, -1.631948, 0.278350, 0.131254, -0.400738, 46.101547, -54.815109, 37.194199
1648228510.347692, -3.006369, -12.291083, -1.604414, 0.334907, 0.667276, -0.433321, 46.776566, -54.989822, 37.682739
1648228510.381023, -2.450615, -14.132075, -2.026243, 0.443123, -0.185742, -0.543523, 47.159744, -55.154022, 38.638733
1648228510.414362, -1.814506, -12.425907, -3.022380, 0.542800, -0.642143, -0.977768, 48.673401, -55.035858, 40.379211
1648228510.447709, 0.554258, -9.067141, -2.308160, 0.488683, -0.270998, -0.755449, 49.929443, -54.952713, 41.378220
1648228510.481030, 1.072453, -9.444078, -1.235707, 0.144604, -0.051526, -0.352347, 50.787872, -55.119202, 42.071182
1648228510.514363, -0.247650, -10.660781, -1.272967, 0.095948, -0.706102, -0.677039, 51.652405, -54.661011, 42.754944
1648228510.547717, -0.878822, -9.062353, -0.898275, 0.046579, -1.151528, -0.982368, 52.936478, -54.572495, 43.094879
1648228510.581040, -1.244386, -7.172280, -0.804452, 0.010945, -0.915392, -1.152603, 54.875717, -54.271347, 43.293961
1648228510.614359, -1.617433, -6.361992, -0.642694, -0.044649, -0.813528, -1.101655, 56.790131, -54.171249, 43.552933
1648228510.647755, -1.752107, -6.664260, -0.611569, -0.158178, -0.852265, -0.988400, 59.157349, -53.897614, 43.355011
1648228510.681043, -1.803283, -7.415291, -0.826000, -0.149526, -0.827816, -0.884217, 60.454239, -53.665665, 42.470627
1648228510.714367, -1.908927, -7.614758, -1.130362, -0.061599, -0.729091, -0.785877, 61.896378, -53.558212, 42.623383
1648228510.747258, -1.732504, -7.400328, -1.340005, 0.016445, -0.551952, -0.598299, 63.059433, -53.195404, 42.618408
1648228510.781034, -1.931971, -8.667010, -0.866252, 0.012870, -0.341766, -0.407390, 63.480362, -53.235443, 42.575180
1648228510.814411, -1.940351, -10.532093, -0.869694, 0.077618, -0.435651, -0.161030, 63.772491, -53.022766, 42.780273
1648228510.847691, -2.295890, -11.871499, -1.134702, 0.179252, -0.398478, -0.131011, 63.864456, -52.917252, 43.024536
1648228510.881040, -2.106000, -11.029937, -1.449539, 0.226666, -0.004805, -0.224563, 63.940308, -52.873932, 43.920929
1648228510.914479, -0.900519, -11.101015, -1.266832, 0.295829, 0.246360, -0.073453, 64.019791, -52.645065, 44.311356
1648228510.947736, -0.637606, -14.047380, -0.242862, 0.280649, 0.267323, 0.181491, 63.705139, -52.084900, 45.029739
1648228510.981044, -0.751630, -13.763517, 0.248847, 0.229839, 0.284346, 0.191857, 62.981506, -51.857880, 45.839951
1648228511.014399, -0.530316, -11.761366, 0.142904, 0.103698, 0.766595, 0.048952, 62.806091, -51.522476, 46.653259
1648228511.046914, 0.106991, -11.470171, -0.172682, -0.113703, 1.374755, 0.166591, 62.440613, -50.941849, 46.719864
1648228511.081033, 1.711854, -10.443208, -0.490811, -0.145537, 1.459089, 0.489392, 61.440369, -50.084015, 47.092026
1648228511.114431, 1.188721, -9.701754, -0.430358, -0.150806, 1.311387, 0.666316, 60.313202, -49.926636, 47.654251
1648228511.147767, 0.563535, -8.159739, -0.184204, -0.316775, 0.978898, 0.662683, 59.145111, -49.383530, 47.477554
1648228511.181088, 0.392799, -6.650045, 0.131980, -0.420667, 0.752555, 0.680523, 57.583618, -48.887665, 46.718567
1648228511.214379, 0.086491, -6.459257, 0.322918, -0.526150, 0.620901, 0.833970, 56.067917, -48.423691, 46.219269
1648228511.247714, -0.314538, -7.154922, 0.352546, -0.511166, 0.511355, 1.068143, 54.729034, -47.999878, 45.345352
1648228511.281033, -0.615609, -8.061427, 0.178368, -0.385567, 0.232513, 1.190487, 52.127686, -47.364594, 44.584290
1648228511.314370, -1.381604, -8.085518, 0.106392, -0.323788, -0.104293, 1.172821, 50.181076, -47.165161, 44.174957
1648228511.347696, -1.826028, -7.379528, -0.071377, -0.285625, -0.304015, 0.921994, 48.440765, -46.553391, 44.245773
1648228511.381055, -2.053178, -8.027010, -0.051326, -0.311805, -0.281700, 0.949670, 47.049530, -45.708420, 44.271301
1648228511.414379, -2.815731, -9.708039, -0.364368, -0.253360, -0.334451, 0.877346, 45.140717, -44.907349, 44.143036
1648228511.447701, -3.466355, -11.407174, -0.803105, -0.038662, -0.444285, 0.532225, 44.007309, -44.210205, 44.283463
1648228511.481046, -3.744681, -11.328016, -1.032200, 0.110792, -0.591795, -0.133646, 43.986710, -43.631393, 45.043442
1648228511.514372, -2.568679, -13.293954, -1.778742, 0.216958, -0.423168, -0.207091, 44.879898, -43.115189, 45.737701
1648228511.547719, -2.188151, -14.478186, -2.319981, 0.324486, -0.658495, -0.137453, 45.143433, -42.758743, 46.839172
1648228511.581094, -2.654272, -13.738378, -2.915539, 0.524196, -0.904309, -0.563288, 46.214325, -42.527924, 48.077316
1648228511.614454, -2.355595, -10.143035, -3.002628, 0.486027, -0.265946, -0.834738, 48.503860, -42.001053, 49.264008
1648228511.647720, -0.526275, -8.787618, -2.124854, 0.361329, 0.496168, -0.761011, 49.632141, -41.974503, 50.280838
1648228511.681057, 0.450409, -9.077765, -0.942268, 0.192418, 0.193141, -0.660741, 50.975891, -41.613312, 50.557449
1648228511.714416, 0.046687, -8.833108, -0.404171, 0.078160, -0.671349, -0.774920, 52.355057, -41.576752, 50.663910
1648228511.747704, -0.902764, -7.122900, -0.632518, -0.063376, -0.917955, -0.923261, 54.805832, -41.065445, 50.768982
1648228511.781031, -1.251569, -6.624307, -1.224634, -0.153581, -0.552409, -0.814287, 56.346069, -40.968124, 50.801544
1648228511.814429, -1.499668, -7.317578, -1.368885, -0.152141, -0.251052, -0.637665, 57.560120, -40.810165, 50.753326
1648228511.847697, -1.647809, -8.705168, -0.855628, -0.033374, -0.180955, -0.628903, 59.072678, -40.379288, 50.666672
1648228511.881032, -1.411681, -9.117419, -0.497096, -0.009847, -0.625553, -0.669574, 60.145905, -39.938553, 50.818192
1648228511.914461, -1.020528, -8.890569, -0.901716, -0.047212, -0.995856, -0.486326, 61.060516, -39.331924, 50.579559
1648228511.947704, -2.230199, -8.459762, -1.237054, -0.019005, -0.883514, -0.398079, 62.299454, -38.942810, 50.640610
1648228511.981053, -2.671480, -8.864981, -1.114501, 0.052798, -0.544774, -0.352671, 62.960876, -38.470154, 50.418396
1648228512.014362, -2.475305, -9.810989, -1.172560, 0.164282, -0.298198, -0.289052, 63.781845, -38.313080, 50.589935
1648228512.047704, -2.450166, -10.798897, -0.884658, 0.219546, -0.113062, -0.258808, 64.326569, -37.603546, 51.324966
1648228512.081103, -1.880496, -10.403554, -0.839467, 0.216718, 0.091339, -0.221975, 64.851624, -37.443619, 51.438416
1648228512.114363, -1.130811, -12.506262, -0.523283, 0.323268, 0.421961, 0.044299, 65.214554, -36.982574, 51.660110
1648228512.147701, -0.423624, -17.366042, 0.348656, 0.336672, 0.749857, 0.418013, 64.976944, -36.685715, 52.667999
1648228512.181109, 0.167295, -12.652308, -0.302268, 0.108639, 0.969451, 0.079083, 64.695282, -36.515808, 53.419327
1648228512.214369, 0.533159, -9.370905, -1.359009, 0.068054, 1.383514, -0.232322, 64.635025, -36.387634, 53.864914
1648228512.247744, 0.843956, -9.105149, 0.757914, -0.243978, 1.727111, 0.100856, 64.882782, -36.264755, 54.345886
1648228512.281048, 1.397914, -10.444854, 1.686416, -0.114218, 1.523003, 0.377410, 63.945297, -36.363907, 54.568130
1648228512.314371, 2.555361, -9.947609, 1.124527, -0.153793, 1.086482, 0.397174, 63.277435, -36.556107, 54.950211
1648228512.347705, 2.282871, -8.188768, 0.793229, -0.234913, 0.446753, 0.538935, 62.533371, -36.471802, 54.761444
1648228512.381050, 1.120037, -7.503278, 1.061230, -0.358088, 0.226839, 0.547837, 61.684555, -36.557159, 54.277222
1648228512.414456, 0.983418, -7.538294, 0.930896, -0.388318, 0.239255, 0.448872, 61.236435, -36.771118, 53.744522
1648228512.447716, 0.738162, -8.511387, 0.436194, -0.316401, 0.239760, 0.491579, 60.370255, -36.956070, 52.960754
1648228512.481037, 0.179864, -10.279804, 0.358532, -0.279262, 0.071040, 0.452071, 60.090942, -37.026947, 52.908432
1648228512.514388, 0.384120, -9.903765, -0.000748, -0.238606, 0.055676, 0.395948, 59.428528, -37.194183, 52.676575
1648228512.547708, -0.169988, -10.141988, 0.239420, -0.253662, 0.029048, 0.320264, 59.136047, -37.316101, 52.074646
1648228512.581050, -0.604237, -10.443807, 0.022446, -0.342479, 0.057477, 0.193733, 58.849869, -37.608521, 51.619492
1648228512.614381, -0.218172, -10.108619, -0.742651, -0.154689, 0.120885, 0.149230, 58.644577, -37.416565, 51.357635
1648228512.647706, -0.280122, -9.781661, -0.272340, 0.024720, -0.047977, 0.027388, 58.564056, -37.401077, 51.458984
1648228512.681048, 0.199617, -9.214983, 0.581043, -0.165576, -0.604358, -0.003184, 58.782028, -37.493866, 50.837692
1648228512.714388, -0.373495, -8.552088, -0.264559, -0.424952, -0.828602, 0.045116, 59.058975, -37.475037, 50.053925
1648228512.747708, -1.492037, -10.267534, -1.075445, -0.360492, -0.930451, 0.138985, 58.738937, -37.507828, 49.623962
1648228512.781045, -2.628235, -12.360365, -1.808221, -0.244999, -0.795530, -0.013162, 59.004181, -37.498245, 48.979340
1648228512.814374, -2.528876, -9.856180, -3.233818, -0.012376, -0.470720, -0.315797, 59.361557, -37.414719, 48.518417
1648228512.847726, -2.102259, -8.279748, -2.863465, -0.008943, 0.335610, -0.319894, 60.189148, -37.290176, 48.472137
1648228512.881065, -1.547552, -8.820538, -1.938106, -0.051968, 0.590614, -0.149370, 60.415405, -37.309341, 48.640274
1648228512.914376, -0.549320, -10.835259, -1.506402, -0.047541, 0.258749, -0.106783, 60.696365, -37.339157, 48.540192
1648228512.947706, -0.124498, -9.975441, -1.887080, -0.043132, -0.315629, -0.148732, 61.026642, -37.248138, 48.083832
1648228512.981071, -0.896928, -8.866477, -2.362478, -0.021810, -0.330329, -0.109008, 61.314606, -37.170166, 48.260376
1648228513.014374, -1.576133, -8.843732, -2.326117, -0.028643, -0.080393, -0.071766, 61.364365, -37.258560, 47.720825
1648228513.047708, -1.165527, -8.731803, -2.274791, -0.008897, 0.094020, -0.103387, 61.892883, -37.253906, 47.812302
1648228513.081041, -1.019780, -8.841637, -2.148347, 0.046436, 0.158921, -0.066976, 61.868668, -37.252853, 48.057266
1648228513.114439, -1.085621, -10.250325, -1.740435, 0.061006, 0.280426, 0.097020, 61.817719, -37.230255, 48.201599
1648228513.147779, -0.423325, -9.511864, -1.414824, 0.042258, 0.338404, -0.004366, 61.966309, -37.361023, 48.546707
1648228513.181111, -0.104297, -9.409961, -1.105074, 0.006890, 0.154410, 0.120396, 61.729263, -37.326660, 48.687607
1648228513.214432, -0.395343, -9.802460, -0.753276, -0.068368, -0.144000, 0.095040, 61.696533, -37.525604, 48.367569
1648228513.247713, -0.791433, -9.991752, -1.182436, -0.036911, -0.139595, 0.024591, 61.603745, -37.411774, 47.900879
1648228513.281046, -1.000776, -9.293842, -1.447145, 0.019450, -0.033753, -0.026320, 61.663467, -37.250778, 48.308655
1648228513.314383, -0.809539, -8.914810, -1.343147, -0.016331, -0.008818, 0.039137, 61.647598, -37.201187, 48.099762
1648228513.347726, -1.153706, -9.855581, -1.177049, -0.013027, -0.114699, 0.141134, 61.365005, -37.290680, 47.992767
1648228513.381051, -1.768716, -10.750265, -0.968903, -0.029254, -0.296118, 0.077341, 61.390732, -37.242981, 48.281876
1648228513.414376, -1.541866, -9.504831, -1.553837, 0.001541, -0.045509, -0.045891, 61.244125, -37.263824, 48.249496
1648228513.447709, -1.547103, -9.023148, -1.411083, 0.007642, 0.144748, 0.016522, 61.290070, -37.426163, 48.075974
1648228513.480733, -1.539771, -9.767445, -1.449839, 0.205063, 0.356089, -0.066329, 61.390625, -37.309494, 48.565857
1648228513.514397, -1.419462, -10.343250, -0.434548, 0.013183, -0.151360, 0.005380, 61.724258, -37.123856, 48.950623
1648228513.546929, -1.676989, -10.007613, -1.492785, 0.008785, -0.119305, -0.050364, 61.502090, -37.154449, 48.597763
1648228513.580163, -1.229423, -9.412654, -1.617732, -0.122514, 0.037800, 0.036436, 61.663055, -37.095764, 48.439255