SamplingTime, AccelerationX, AccelerationY, AccelerationZ, GyroX, GyroY, GyroZ, MagneticFieldX, MagneticFieldY, MagneticFieldZ
1649447379.117534, -0.144101, -9.780015, 1.112705, -0.004527, -0.002396, 0.001932, 68.235886, -26.951416, 52.697311
1649447379.150834, -0.129586, -9.728689, 1.127220, -0.000601, 0.009264, -0.000357, 68.198532, -26.998993, 52.823654
1649447379.184148, -0.226701, -9.747244, 1.128716, -0.003110, 0.002488, -0.000251, 68.386810, -27.010147, 52.461487
1649447379.217580, -0.208296, -9.739014, 1.094001, -0.000743, 0.007820, -0.002761, 68.080505, -27.052261, 52.527618
1649447379.250771, -0.153229, -9.739163, 1.135600, -0.001307, 0.007610, -0.001072, 68.149002, -26.964462, 52.688889
1649447379.284169, -0.162506, -9.755773, 1.112556, -0.001491, 0.005514, 0.001339, 68.136826, -26.767853, 52.317917
1649447379.317505, -0.256180, -9.747543, 1.091157, 0.003078, 0.016001, -0.003389, 68.113785, -26.890366, 52.361145
1649447379.350834, -0.188094, -9.733477, 1.138892, 0.003650, 0.009873, -0.005206, 68.240631, -27.042542, 52.402573
1649447379.383982, -0.161010, -9.746645, 1.120935, 0.000652, 0.007058, -0.001330, 68.172623, -26.901276, 52.581772
1649447379.417502, -0.188693, -9.733776, 1.093851, 0.003200, 0.010842, -0.000503, 68.271133, -26.851913, 52.524307
1649447379.450808, -0.224307, -9.741258, 1.131560, 0.005975, 0.010262, -0.004227, 68.142105, -27.094955, 52.434006
1649447379.484219, -0.128688, -9.731532, 1.136198, 0.002086, 0.000383, -0.000156, 68.289139, -26.999771, 52.385269
1649447379.517475, -0.205901, -9.749788, 1.083526, 0.002862, 0.008264, -0.001543, 68.326660, -26.991180, 52.437042
1649447379.550929, -0.183306, -9.725247, 1.106720, 0.007582, 0.006746, 0.000708, 68.407196, -27.001312, 52.302170
1649447379.584161, -0.148590, -9.746196, 1.134403, 0.006253, 0.002120, 0.002344, 68.235367, -26.909912, 52.291519
1649447379.617499, -0.147842, -9.727043, 1.119888, 0.004136, 0.006795, 0.006131, 68.316055, -26.940628, 52.506271
1649447379.650823, -0.225055, -9.725397, 1.133056, 0.001731, 0.003182, 0.003115, 68.174118, -27.073410, 52.432098
1649447379.684191, -0.243311, -9.761310, 1.120337, 0.001920, 0.011737, 0.000447, 68.152222, -26.869019, 52.087860
1649447379.717565, -0.173430, -9.740959, 1.127968, 0.004355, 0.010583, -0.001092, 68.235352, -27.046753, 52.407700
1649447379.750858, -0.164452, -9.726893, 1.131709, 0.006951, 0.009092, 0.003736, 68.115311, -26.960571, 52.433243
1649447379.784150, -0.218920, -9.717017, 1.134103, 0.005805, 0.008666, -0.003155, 68.197479, -27.050735, 52.399170
1649447379.817551, -0.218770, -9.754127, 1.131560, 0.004603, 0.014867, -0.001799, 68.161743, -26.720474, 52.339706
1649447379.850821, -0.202310, -9.744999, 1.137844, 0.003624, 0.013833, -0.004572, 68.177185, -26.762268, 52.362595
1649447379.884156, -0.161609, -9.726295, 1.125275, 0.004038, 0.011574, 0.002758, 68.151123, -26.927689, 52.343597
1649447379.917567, -0.152481, -9.730335, 1.144428, 0.000487, 0.004449, 0.006021, 68.250092, -26.798737, 52.540833
1649447379.950811, -0.169240, -9.763405, 1.144279, -0.005494, -0.000245, 0.009049, 68.177307, -26.841553, 52.398605
1649447379.984130, -0.205303, -9.749488, 1.139041, -0.001240, 0.003527, 0.004611, 68.039627, -26.808838, 52.711060
1649447380.017503, -0.205004, -9.747094, 1.146074, 0.000169, 0.006894, -0.001156, 68.235352, -26.967377, 52.363571
1649447380.050808, -0.188244, -9.742455, 1.135001, 0.000158, 0.006573, 0.003037, 68.310379, -26.987610, 52.623764
1649447380.083960, -0.232088, -9.765949, 1.123180, -0.002479, 0.013048, -0.001043, 68.123123, -26.946030, 52.569122
1649447380.117476, -0.224456, -9.728539, 1.149815, 0.000717, 0.012142, -0.008664, 67.999268, -26.850815, 52.887222
1649447380.150844, -0.164003, -9.756072, 1.127669, -0.002137, 0.011925, -0.008119, 68.273590, -26.936234, 52.760178
1649447380.184134, -0.225354, -9.745149, 1.126622, -0.000146, 0.022801, -0.007758, 68.229797, -26.866837, 52.723404
1649447380.217479, -0.155922, -9.752631, 1.153107, -0.002295, 0.009196, -0.004299, 68.197739, -27.004959, 52.594742
1649447380.250280, -0.253486, -9.723003, 1.130961, -0.001345, 0.016821, -0.011514, 68.316238, -26.834381, 52.838791
1649447380.284127, -0.219668, -9.736171, 1.133206, 0.003012, 0.008171, -0.011248, 68.162827, -26.797668, 52.464157
1649447380.317470, -0.175226, -9.761609, 1.111358, 0.002664, 0.011563, -0.016545, 68.234192, -26.912262, 52.380508
1649447380.350802, -0.163404, -9.725098, 1.169418, 0.003481, 0.000283, -0.010920, 68.304749, -26.894989, 52.474304
1649447380.384204, -0.154127, -9.709984, 1.107468, 0.002401, 0.006561, -0.013081, 68.553024, -27.126953, 52.427414
1649447380.417467, 0.005986, -9.742605, 1.175254, 0.002651, -0.003110, 0.010137, 68.468719, -26.854492, 52.073608
1649447380.450797, 0.000299, -9.747094, 1.174506, -0.003741, -0.029188, 0.026399, 68.574982, -26.937271, 52.595108
1649447380.484126, -0.212934, -9.714922, 1.105223, 0.000617, -0.020607, 0.028655, 68.347427, -26.791321, 52.434937
1649447380.517459, -0.282217, -9.717466, 1.129614, -0.000421, -0.008041, 0.017729, 68.327560, -26.918640, 52.541382
1649447380.550793, -0.239570, -9.721357, 1.156100, -0.000187, 0.001862, 0.004676, 68.319717, -26.876114, 52.546173
1649447380.584139, -0.202759, -9.748142, 1.136198, -0.001134, -0.005337, 0.001587, 68.390808, -26.995041, 52.593246
1649447380.617389, -0.195427, -9.734225, 1.077391, 0.005665, 0.013456, 0.003996, 68.342911, -26.848663, 52.698242
1649447380.650865, -0.194978, -9.730484, 1.140239, 0.005487, 0.014584, 0.002116, 68.194550, -26.815094, 53.133255
1649447380.684126, -0.180762, -9.728689, 1.164031, 0.005566, 0.019127, -0.000967, 68.382904, -26.899460, 52.953613
1649447380.717529, -0.206051, -9.751284, 1.134852, 0.008071, 0.019975, 0.002109, 68.371613, -26.856644, 52.939545
1649447380.750786, -0.199617, -9.754875, 1.137695, 0.004800, 0.010231, -0.000430, 68.362518, -27.091171, 52.665237
1649447380.784123, -0.249895, -9.725995, 1.142483, 0.005619, 0.021419, -0.006544, 68.464249, -27.000702, 52.627289
1649447380.817475, -0.230292, -9.746346, 1.159691, 0.008673, 0.027432, -0.010519, 68.243378, -26.879196, 52.423370
1649447380.850780, -0.209044, -9.707740, 1.170016, 0.008763, 0.023390, -0.011130, 68.346024, -26.984879, 52.709961
1649447380.884122, -0.062249, -9.806051, 1.140239, 0.002354, 0.001269, -0.001964, 68.217010, -26.868408, 52.608826
1649447380.917504, -0.163554, -9.743952, 1.169568, 0.002391, 0.013944, 0.006644, 68.225479, -26.939880, 52.572311
1649447380.950783, -0.199766, -9.738565, 1.171064, 0.001954, 0.011776, 0.001029, 68.267166, -26.840881, 52.776321
1649447380.984120, -0.327407, -9.761459, 1.148768, 0.006510, 0.032618, -0.017110, 68.366821, -27.020172, 52.625610
1649447381.017517, -0.247201, -9.702652, 1.123180, 0.004268, 0.035729, -0.026434, 68.429382, -26.947586, 52.585800
1649447381.050794, -0.205602, -9.674370, 1.177947, 0.010904, 0.034532, -0.028758, 68.506897, -26.905151, 52.509003
1649447381.084139, -0.194080, -9.723152, 1.142184, 0.012940, 0.029341, -0.020989, 68.258041, -26.845505, 52.718430
1649447381.117409, -0.075866, -9.686341, 1.158345, 0.010627, 0.013320, -0.018436, 68.445541, -26.715546, 52.335190
1649447381.150794, -0.113425, -9.735273, 1.178695, 0.009715, 0.000174, -0.012136, 68.536255, -26.940659, 52.491226
1649447381.184121, -0.130185, -9.755474, 1.166874, 0.013099, 0.003279, -0.007555, 68.320892, -26.999741, 52.637207
1649447381.217656, -0.174178, -9.770288, 1.193659, 0.008707, 0.011755, -0.009481, 68.422791, -26.965698, 52.403625
1649447381.250797, -0.207547, -9.725397, 1.208473, 0.007315, 0.020008, -0.017879, 68.611710, -27.071945, 52.625671
1649447381.284182, -0.149039, -9.726295, 1.179743, 0.007587, 0.027916, -0.020668, 68.419357, -26.965240, 52.636597
1649447381.317643, 0.018256, -9.736021, 1.214608, 0.002351, 0.001067, -0.007514, 68.491852, -27.244781, 52.591293
1649447381.350803, -0.153229, -9.736769, 1.151761, 0.003905, 0.007267, 0.003141, 68.577972, -27.193161, 52.444763
1649447381.384109, -0.146346, -9.757120, 1.230470, 0.001875, 0.000454, 0.003557, 68.410660, -27.110901, 52.562805
1649447381.417502, -0.050278, -9.722703, 1.209970, -0.001215, -0.000633, 0.004082, 68.471054, -26.991760, 52.548050
1649447381.450785, -0.207248, -9.765350, 1.179294, -0.003409, -0.003481, 0.000568, 68.627838, -26.958694, 52.447891
1649447381.484125, -0.188394, -9.706692, 1.182586, -0.001405, 0.001504, -0.007239, 68.765350, -27.175156, 52.279709
1649447381.517492, -0.262165, -9.696666, 1.118840, -0.000079, 0.015546, -0.018256, 68.602646, -27.117447, 52.345032
1649447381.550791, -0.116717, -9.742605, 1.162385, 0.003164, 0.029732, -0.017191, 68.525543, -26.954269, 52.533203
1649447381.584167, -0.039055, -9.733776, 1.157746, 0.004423, 0.028112, -0.012850, 68.597336, -27.163025, 52.382263
1649447381.617370, -0.059406, -9.742156, 1.178695, 0.013187, 0.015467, -0.010742, 68.552078, -27.069565, 52.333054
1649447381.650976, -0.246154, -9.766697, 1.161337, 0.015327, 0.016783, -0.022605, 68.374710, -26.900314, 52.365601
1649447381.684178, -0.185850, -9.703699, 1.174506, 0.020045, 0.038445, -0.034342, 68.355621, -26.925339, 52.545227
1649447381.717629, -0.099210, -9.706094, 1.192312, 0.023211, 0.028521, -0.037682, 68.673904, -27.020035, 52.364212
1649447381.750841, -0.117166, -9.667188, 1.186028, 0.030156, 0.030166, -0.033685, 68.462585, -26.938507, 52.149170
1649447381.784160, -0.043844, -9.693674, 1.210269, 0.030246, 0.055293, -0.033384, 68.497086, -27.006836, 52.360733
1649447381.817467, -0.018106, -9.692177, 1.278953, 0.030940, 0.022874, -0.016803, 68.672852, -27.047943, 52.336136
1649447381.850973, 0.149787, -9.739463, 1.293916, 0.023472, 0.005698, 0.006006, 68.785538, -27.109955, 52.471588
1649447381.884118, 0.066289, -9.771336, 1.230470, 0.014222, -0.004622, 0.012658, 68.532898, -26.852875, 52.204803
1649447381.917454, -0.075717, -9.755923, 1.265784, 0.020447, -0.002858, 0.023658, 68.460892, -27.083130, 52.624924
1649447381.950759, -0.095768, -9.735572, 1.253365, 0.016864, -0.006479, 0.022867, 68.447922, -26.971237, 52.615509
1649447381.983404, -0.167594, -9.729736, 1.243040, 0.022636, 0.011858, 0.013991, 68.472137, -26.739899, 52.412338
1649447382.017435, -0.170587, -9.693973, 1.264438, 0.025059, 0.031016, -0.000512, 68.352112, -26.722992, 52.150208
1649447382.050759, -0.243610, -9.690082, 1.272668, 0.029330, 0.089883, -0.013452, 68.528625, -26.958740, 52.494781
1649447382.084092, -0.255581, -9.660155, 1.226131, 0.046023, 0.146696, -0.021363, 68.432571, -26.705353, 52.263885
1649447382.117097, -0.107739, -9.770587, 1.217152, 0.062344, 0.180026, -0.032514, 68.406952, -26.839005, 51.922089
1649447382.150760, -0.206051, -9.729886, 1.195006, 0.087975, 0.148032, -0.038585, 68.304688, -26.787003, 52.287369
1649447382.184087, 0.032322, -9.673173, 1.186626, 0.100231, 0.115818, -0.024162, 67.950562, -26.724915, 52.270859
1649447382.217443, 0.141856, -9.719561, 1.160290, 0.132996, 0.063663, -0.003857, 67.795227, -26.645554, 52.357040
1649447382.250762, -0.173280, -9.611822, 1.508347, 0.162727, 0.008636, 0.006511, 68.026001, -26.578934, 52.632156
1649447382.284104, -0.433201, -9.211392, 1.320701, 0.247320, 0.167612, 0.032169, 67.827957, -26.464920, 52.740250
1649447382.317471, 0.276680, -9.590723, 1.653047, 0.262300, 0.248174, 0.080945, 67.559280, -26.182861, 52.807541
1649447382.350790, 0.739659, -9.820716, 1.508347, 0.233841, 0.189470, 0.194793, 67.507996, -26.064499, 52.737671
1649447382.384085, 0.415993, -9.595960, 2.225710, 0.166952, 0.217541, 0.252399, 66.777557, -25.414322, 52.626511
1649447382.417044, -0.440084, -9.927408, 2.078915, 0.121397, 0.093814, 0.226042, 66.445328, -25.388992, 52.631836
1649447382.450762, -1.225233, -9.668834, 2.107496, 0.095478, 0.216794, 0.154879, 65.945786, -25.184509, 52.725464
1649447382.484067, -0.770933, -9.811139, 2.196979, 0.019928, 0.328851, 0.089501, 65.523315, -25.155365, 52.286972
1649447382.517475, 0.264410, -9.802311, 1.948581, -0.018018, 0.189069, 0.089529, 65.453415, -25.221039, 52.284012
1649447382.550765, -0.852635, -9.496152, 1.824831, -0.029855, 0.202354, 0.097782, 65.172607, -24.850662, 51.958893
1649447382.584077, -0.328903, -9.541043, 1.972972, -0.044298, 0.257343, 0.140015, 64.910400, -24.859314, 51.709778
1649447382.617087, -0.474650, -9.698612, 1.725172, -0.063608, 0.261227, 0.148790, 64.077682, -24.885529, 51.574402
1649447382.650801, -0.244657, -9.687838, 1.877503, -0.083949, 0.201225, 0.183224, 63.954788, -24.804642, 51.399139
1649447382.684076, -0.588974, -9.686641, 1.803881, -0.103838, 0.154378, 0.236646, 63.693787, -24.858475, 51.448090
1649447382.717415, -0.256180, -9.615114, 1.997662, -0.142950, 0.071924, 0.286100, 63.140152, -24.738556, 51.081863
1649447382.750741, -2.006790, -9.888502, 1.919850, -0.193423, 0.095337, 0.205058, 62.878616, -24.513901, 50.529037
1649447382.784074, -0.852336, -9.553912, 1.420210, -0.205157, 0.120747, 0.178829, 62.416687, -24.637482, 50.540955
1649447382.817404, -0.719458, -9.676615, 1.691354, -0.202321, 0.234337, 0.273039, 61.785767, -24.636444, 50.232101
1649447382.850762, -0.377536, -9.390059, 1.066318, -0.171573, 0.414520, 0.418678, 61.035599, -24.384979, 49.914093
1649447382.884143, 0.453701, -10.083031, 2.234987, -0.262317, 0.322917, 0.675366, 60.269684, -24.152252, 49.295212
1649447382.917438, 0.748637, -11.030087, 1.036839, -0.419743, -0.033934, 1.090667, 59.080475, -23.866348, 48.772842
1649447382.950735, 0.033220, -11.542895, 0.617704, -0.493347, -0.403733, 1.442060, 57.403854, -22.809860, 48.879501
1649447382.984131, -1.091457, -11.674277, -0.494702, -0.679787, -0.227660, 1.411228, 56.007095, -21.997604, 48.688705
1649447383.017398, 4.577564, -13.025056, 3.083732, -0.002162, 1.579537, -0.495144, 54.882553, -21.958237, 47.491470
1649447383.050740, 11.928062, -11.306617, 3.467702, -0.347140, 0.012373, -1.757034, 55.705658, -24.809189, 46.762939
1649447383.084079, 1.407042, -11.935095, 1.354071, -0.021858, 0.409165, -2.318153, 57.205231, -27.791489, 47.086060
1649447383.116777, 5.951237, -10.171915, 3.407398, 0.380462, 0.013855, -2.657616, 59.608566, -30.802872, 47.369141
1649447383.150742, 3.983802, -9.833285, 3.944148, 0.509443, -1.056969, -2.913587, 64.727615, -35.103546, 50.544693
1649447383.184065, 4.244620, -9.317634, 1.912817, 0.692055, -1.428574, -3.095638, 70.138184, -37.742538, 53.731247
1649447383.217386, 2.955043, -8.946234, 1.044171, 0.803680, -1.512982, -3.175203, 76.208649, -39.353973, 56.993286
1649447383.250740, 3.107374, -8.671200, 0.979378, 0.874904, -1.452653, -3.134418, 83.242767, -40.288559, 60.711578
1649447383.284099, 3.351134, -9.041403, 1.312172, 0.834341, -1.521024, -2.955394, 92.671112, -39.852081, 64.032867
1649447383.317428, 2.909703, -9.034969, 1.373374, 0.715946, -1.653018, -2.683440, 99.842392, -38.622269, 66.488068
1649447383.350740, 2.505382, -9.096470, 1.120786, 0.560430, -1.359395, -2.144259, 106.510330, -36.410843, 67.595947
1649447383.384057, 1.551443, -9.081057, 1.132158, 0.302145, -0.899328, -1.665371, 113.043411, -33.177063, 67.451263
1649447383.417446, 0.196624, -8.177096, 0.059406, 0.077063, -0.442741, -1.020070, 116.122787, -31.241577, 67.343246
1649447383.450722, -0.431555, -7.861212, -0.753425, -0.072006, 0.447097, 0.263769, 117.139954, -30.174744, 67.447983
1649447383.484056, -2.596661, -8.284237, -1.227028, -0.227073, 1.209021, 1.218411, 115.551331, -30.051102, 67.980194
1649447383.517305, -3.630657, -7.962217, -2.362329, -0.131886, 2.696489, 2.041584, 111.475159, -30.611313, 70.361252
1649447383.550724, 14.659098, -12.028020, 6.257994, 0.049325, 1.469593, 1.336578, 107.118240, -30.300629, 73.223450
1649447383.584060, -3.886238, -13.974656, 10.739940, 0.401120, 0.981773, 1.656459, 103.120224, -29.018814, 74.320526
1649447383.617389, 4.130596, -14.282760, 5.658845, 0.368873, -0.183505, 1.413140, 101.670471, -28.338303, 74.642075
1649447383.650715, 6.471527, -13.463344, -1.351826, 0.118845, 0.459461, 1.141874, 100.033966, -27.720779, 75.256882
1649447383.684078, 4.172944, -11.893795, 3.394679, 0.105267, 0.121867, 1.207775, 98.645325, -27.449707, 75.127045
1649447383.717381, 3.428198, -10.537929, 4.397101, 0.088816, -0.454701, 1.284194, 97.410645, -27.825439, 74.764053
1649447383.750706, 5.265747, -9.047688, 2.029684, -0.025919, -0.740060, 1.453987, 96.824814, -28.031158, 74.121323
1649447383.784052, 3.820697, -9.116222, 2.468871, -0.036408, -0.816270, 1.527362, 96.382187, -28.291183, 73.251831
1649447383.817379, 1.258003, -7.936030, 3.271078, -0.047557, -0.690940, 1.467284, 95.491257, -28.603073, 72.399780
1649447383.850774, 1.470788, -7.940819, 2.995296, -0.078263, -0.704981, 1.346441, 94.988434, -28.782440, 71.653961
1649447383.884044, 0.397437, -8.390480, 2.462736, -0.087534, -0.521568, 1.189483, 94.472031, -28.898026, 71.010544
1649447383.917377, -0.101454, -8.231714, 2.540847, -0.055258, -0.233666, 1.050144, 93.366608, -28.921616, 69.987289
1649447383.950744, 0.295235, -9.176376, 3.412635, -0.075555, -0.120469, 0.962508, 92.554733, -28.832504, 69.640717
1649447383.984077, 0.563984, -9.034370, 1.936161, -0.015403, -0.043630, 0.922518, 91.423325, -28.756958, 69.458206
1649447384.017386, 0.427964, -9.272593, 1.578078, -0.019838, 0.126443, 0.886955, 90.545456, -28.478806, 68.960617
1649447384.050716, -0.168941, -9.386917, 2.270451, -0.000773, 0.222339, 0.894400, 89.107346, -28.407318, 68.253510
1649447384.084040, 2.734627, -8.447192, 2.047192, 0.095411, -0.044967, 1.262331, 87.912750, -27.868881, 68.337708
1649447384.117377, 1.716792, -9.135076, 2.989310, 0.107049, -0.127755, 1.445524, 87.007294, -27.087280, 67.965347
1649447384.150708, -1.551293, -8.822633, 2.328062, 0.142221, 0.164415, 1.566547, 84.684082, -25.798538, 66.740921
1649447384.184038, -0.129287, -12.686426, 1.683273, -0.100124, 0.244512, 2.015592, 82.623444, -24.865433, 65.873413
1649447384.217392, 1.058985, -12.148628, -0.584634, -0.443680, 0.292911, 2.205867, 80.163223, -24.315247, 64.511185
1649447384.250702, -2.181417, -15.282189, -3.779846, -0.973043, 2.304307, 1.572816, 76.215912, -24.846664, 62.693161
1649447384.284066, 1.190517, -14.512753, 3.769521, -0.232911, 4.762815, -0.140732, 72.088043, -25.455933, 59.671539
1649447384.317367, 10.363601, -10.818499, 4.526388, -1.274044, -0.838295, -2.597200, 72.807877, -27.463303, 56.551041
1649447384.350690, 2.744803, -13.371766, 2.572121, 0.234837, 0.331829, -2.684218, 77.791336, -30.316772, 53.114517
1649447384.384073, 6.819883, -10.480169, 2.308609, 0.298931, -0.476032, -3.480911, 83.409317, -32.476776, 50.839172
1649447384.417366, 1.729661, -9.230545, 1.724274, 0.345222, -1.171405, -3.941599, 90.725388, -34.130615, 48.777618
1649447384.449782, 2.934693, -7.911190, 0.870442, 0.567545, -0.750565, -4.015598, 98.968948, -34.112656, 46.775208
1649447384.484029, 2.339734, -6.811953, 1.229722, 0.451972, -1.120900, -3.833759, 109.783401, -31.195175, 44.731720
1649447384.517370, 2.657265, -6.777686, 0.673369, 0.437996, -1.199883, -3.364390, 116.907516, -26.687225, 42.809723
1649447384.550712, 2.073828, -7.772626, 0.954538, 0.310044, -0.575200, -2.790601, 121.949829, -21.247650, 41.413101
1649447384.584027, 2.847903, -8.114698, 1.394772, 0.107631, -0.218739, -2.151981, 124.951584, -13.332855, 40.323578
1649447384.617358, 1.800589, -7.312191, 0.115371, -0.053127, -0.086081, -0.957998, 124.836166, -8.238281, 39.974335
1649447384.650725, -0.897077, -7.824850, 0.397737, -0.088833, 0.616496, 0.014021, 122.913132, -4.188095, 40.956497
1649447384.684017, -2.305317, -9.111284, 0.134375, -0.204823, 0.547594, 1.041919, 118.860245, -1.353668, 42.581223
1649447384.717362, 3.189974, -11.888708, 0.389507, -0.109180, 0.534384, 1.762360, 114.801407, -0.148758, 44.458405
1649447384.749891, -14.151378, -26.252122, 12.892028, 0.332590, 2.033855, 2.279144, 110.182526, 0.819839, 46.488953
1649447384.784045, -4.593725, -15.844078, 6.769456, 0.319996, 0.062788, 1.350239, 108.384720, 0.725266, 47.227341
1649447384.817355, 6.179734, -13.533075, 0.149638, 0.057547, 0.952466, 1.070711, 106.790863, 0.846863, 47.768051
1649447384.850690, 2.373701, -9.960029, 7.245602, -0.101818, 0.463741, 1.207377, 105.208603, 0.171890, 48.387756
1649447384.884068, 4.826561, -8.456171, 2.336142, -0.366737, 0.388239, 1.251714, 104.286331, -0.810333, 49.033920
1649447384.917353, 4.020912, -9.419538, 1.712303, -0.386889, 0.356932, 1.518952, 102.446198, -2.422684, 49.625580
1649447384.950685, 2.716072, -8.524854, 0.994492, -0.290878, 0.119729, 1.679906, 100.643463, -3.461807, 50.358902
1649447384.984069, 0.456095, -9.063849, 1.856554, -0.275676, -0.069008, 1.622630, 99.325989, -4.278595, 50.768402
1649447385.017339, -0.232836, -8.790760, 1.929727, -0.287365, 0.046195, 1.500551, 97.452927, -5.351746, 51.533981
1649447385.050685, -0.513407, -9.395596, 2.185607, -0.324724, 0.107999, 1.341234, 96.164047, -5.824265, 51.531616
1649447385.084089, -1.185279, -9.221268, 1.584662, -0.317949, 0.376047, 1.265171, 94.800674, -6.272064, 51.909714
1649447385.117363, 0.036661, -9.254936, 1.915511, -0.369909, 0.496740, 1.400503, 93.172913, -6.764038, 52.259369
1649447385.150671, 0.582390, -9.881618, 1.076044, -0.447289, 0.145733, 1.570081, 90.980438, -7.393494, 52.573196
1649447385.184015, -0.452654, -9.605986, 1.564461, -0.462609, -0.058747, 1.628503, 89.506180, -7.618195, 52.642593
1649447385.217365, 0.115670, -10.322750, 2.852242, -0.449963, 0.210829, 1.657517, 87.745544, -7.891556, 52.977539
1649447385.250678, 2.224363, -11.116129, 2.100912, -0.545342, 0.024931, 1.910779, 84.925110, -8.679260, 53.330109
1649447385.284015, 4.085107, -12.183045, 0.621445, -0.457972, -0.560440, 2.201943, 82.728943, -9.310944, 54.345932
1649447385.317354, -1.671452, -13.195942, 1.547103, -0.250632, -0.724457, 2.108089, 80.454361, -10.398087, 56.054459
1649447385.350675, -4.337096, -13.593978, 2.244414, -0.164821, -0.993752, 0.675490, 78.680710, -11.836761, 58.162842
1649447385.384005, 6.270863, -11.776031, 2.178424, -0.229680, -1.035832, -2.697760, 80.047867, -14.293304, 59.242126
1649447385.417344, 1.567604, -12.136059, 0.761057, -0.082671, -0.783143, -3.571758, 83.188904, -16.181503, 60.590530
1649447385.450659, 4.319888, -10.686519, 1.027711, 0.054497, -0.481149, -4.106684, 87.213577, -17.601318, 61.971008
1649447385.483468, 2.647388, -9.123704, 1.063624, 0.062649, -0.667210, -4.366310, 90.341110, -17.863220, 62.578552
1649447385.517341, 2.520346, -7.904756, 0.736666, 0.214057, -0.719419, -4.329980, 92.863708, -17.434906, 62.808716
1649447385.550676, 2.830395, -7.424719, 0.830189, 0.246238, -0.870559, -4.096990, 94.453323, -17.182480, 63.000641
1649447385.584003, 3.250727, -7.070227, 0.809539, 0.260023, -0.810941, -3.556463, 95.909927, -18.326859, 63.557617
1649447385.617341, 3.435230, -6.926425, 1.391929, 0.262590, -0.372232, -3.011902, 96.510086, -20.263931, 64.604675
1649447385.650651, 4.150049, -7.764546, 2.144157, 0.182502, -0.238570, -2.362808, 97.075943, -23.126572, 65.683578
1649447385.683712, 2.873790, -8.109760, 1.931821, 0.122894, -0.140426, -1.657845, 98.676910, -29.023865, 67.039612
1649447385.716731, 1.131260, -9.091682, 2.093430, 0.163565, 0.436085, -0.643386, 99.563461, -33.219330, 68.933868
1649447385.750670, -0.787692, -9.952846, 2.108843, 0.009802, 0.592547, 0.026754, 100.259811, -37.993759, 70.869675
1649447385.783674, -2.478298, -8.515427, 0.422876, 0.288299, 1.113344, 0.728144, 99.506683, -43.922028, 73.344604
1649447385.817071, -2.021903, -8.801833, -0.658555, 0.681814, 0.215623, 2.228496, 97.694275, -48.060013, 76.364731
1649447385.850669, -13.959243, -18.560749, 5.661688, 0.824291, 2.118999, 2.206011, 93.212296, -52.289474, 79.630035
1649447385.883999, -4.246117, -15.637429, 4.433613, 0.311399, 1.303532, 1.518815, 88.681000, -54.977692, 81.602188
1649447385.917324, 4.710442, -24.005463, 1.388936, -0.040971, 0.993837, 0.436293, 83.352249, -56.808121, 83.359955
1649447385.950722, 6.894852, -6.757784, 6.047753, 0.251727, 0.228371, 1.078132, 81.612152, -56.423050, 83.376999
1649447385.983988, 5.630863, -7.423970, 4.405481, -0.129806, 0.269447, 1.431398, 79.760712, -56.639282, 82.921539
1649447386.016489, 5.849184, -9.225158, 4.036923, -0.368612, 0.373479, 1.745410, 75.374725, -57.189606, 81.883957
1649447386.050673, 1.947982, -8.500763, 1.730709, -0.340879, 0.343870, 1.862737, 72.754898, -57.284180, 81.063629
1649447386.083998, 2.962376, -7.968352, 1.045817, -0.215139, 0.271838, 1.948231, 69.318237, -57.628952, 80.458328
1649447386.117345, 0.786645, -8.380604, 1.950676, -0.088053, -0.060202, 1.915650, 65.473785, -57.429047, 80.344391
1649447386.150489, 0.198719, -8.816199, 2.565686, -0.094980, -0.183775, 1.863535, 63.085358, -57.326416, 80.508896
1649447386.183985, -0.819565, -8.873809, 2.567931, -0.099471, -0.162911, 1.799518, 60.607895, -57.094238, 80.234848
1649447386.217341, -1.288529, -9.195979, 2.500893, -0.166761, 0.102667, 1.746490, 57.872818, -56.757034, 80.182663
1649447386.250678, -0.594361, -9.351901, 2.000206, -0.198558, 0.142413, 1.723352, 53.904556, -55.978531, 79.830399
1649447386.283986, -1.596933, -8.589348, 1.829769, -0.105888, 0.283344, 1.651002, 50.853729, -56.008667, 79.616730
1649447386.317333, -0.678906, -9.774478, 1.853711, -0.030269, 0.130550, 1.709533, 48.066452, -55.513474, 79.286682
1649447386.350651, 0.960973, -9.536404, 3.744232, -0.111877, -0.245931, 1.931952, 44.434250, -54.218033, 79.896439
1649447386.383984, 0.427066, -9.592968, 1.631798, -0.010529, -0.231547, 2.108287, 42.223145, -53.186279, 80.658264
1649447386.417401, -1.323245, -10.250026, 1.199196, 0.128228, 0.107070, 2.099154, 39.946869, -52.089722, 80.543594
1649447386.450658, -3.726575, -12.490400, 3.275268, -0.022810, -0.607823, 1.599009, 38.952377, -50.634644, 81.170609
1649447386.484030, -6.028001, -13.683311, 0.846201, -0.274607, -0.806736, 0.664016, 41.340576, -50.095444, 80.976395
1649447386.517350, 3.020884, -15.835699, 1.957559, -0.466835, 0.548510, -1.996776, 46.642914, -51.688782, 78.265350
1649447386.550646, 2.081160, -13.883676, 1.167772, -0.408394, 1.332852, -3.841996, 55.364410, -55.289032, 73.325607
1649447386.584043, 7.206547, -12.004377, 1.978957, -0.457644, 0.898103, -4.377746, 69.010925, -57.379303, 66.934113
1649447386.617328, 3.452289, -10.908432, 2.413804, -0.415139, 0.314828, -4.707140, 80.466385, -56.739243, 63.406769
1649447386.650343, 4.108001, -8.962095, 1.794305, -0.215999, -0.079252, -4.779031, 91.372955, -54.083771, 60.173309
1649447386.683975, 3.469797, -6.981791, 1.121534, -0.073768, -0.802242, -4.483068, 103.562241, -48.392731, 56.708878
1649447386.717330, 2.314894, -6.896049, 0.928651, 0.093397, -0.593194, -4.147990, 110.800949, -43.822510, 54.715988
1649447386.750645, 2.407070, -7.032070, 0.855179, 0.253964, -0.208356, -3.769363, 116.289398, -39.537048, 53.624191
1649447386.783996, 3.214365, -7.342268, 1.740884, 0.246345, -0.322474, -2.921659, 121.806580, -34.403793, 53.470978
1649447386.817307, 2.347814, -8.296058, 1.869273, -0.044043, -0.541836, -2.065450, 125.292633, -32.021393, 52.929367
1649447386.850659, 1.939752, -8.584410, 1.363647, -0.109328, -0.439498, -1.066455, 128.027588, -30.138870, 52.913147
1649447386.883966, -1.821389, -10.516680, 1.889923, -0.315142, 0.427451, 0.212254, 129.450043, -29.145767, 54.409164
1649447386.917318, -1.592294, -12.310536, 1.648557, -0.131021, 1.150459, 1.027091, 128.755157, -29.658768, 56.425873
1649447386.950639, -3.716998, -10.352229, 1.237054, 0.323530, 0.778374, 1.907052, 127.049561, -31.008957, 58.340057
1649447386.983967, -11.984027, -16.639253, 3.149273, 0.883299, 1.177496, 2.736801, 123.836121, -32.797668, 60.441315
1649447387.017352, -0.346860, -12.020987, 1.435474, 0.458368, 0.482941, 1.754838, 119.706390, -34.262878, 63.347748
1649447387.050635, 0.855329, -11.457153, 6.185420, 0.207184, 1.210446, 1.596235, 116.689728, -35.348618, 64.996613
1649447387.084012, 5.270087, -13.933356, 3.450793, -0.173760, 1.027727, 1.324991, 114.087296, -36.298630, 65.997421
1649447387.117300, 7.977480, -9.306112, 3.382708, -0.060843, -0.090510, 1.395129, 111.281509, -37.109619, 66.913422
1649447387.150134, 4.129100, -7.535151, 2.841768, -0.168382, 0.027369, 1.662479, 109.242218, -37.903061, 67.219910
1649447387.183959, 4.258537, -8.713248, 2.127398, -0.249449, -0.085589, 1.805617, 106.979507, -38.679443, 67.426239
1649447387.217298, 0.516848, -7.853131, 2.114679, -0.281996, -0.037569, 1.776629, 104.059372, -39.850174, 67.590485
1649447387.250690, -1.077241, -8.547300, 1.415123, -0.212897, 0.235912, 1.578848, 101.707245, -40.648438, 67.700195
1649447387.283976, 0.028581, -8.845378, 2.974197, -0.219199, -0.020726, 1.458917, 99.704849, -41.160797, 68.268250
1649447387.317340, -2.551620, -9.211242, 1.846827, -0.214799, 0.050911, 1.165804, 97.719345, -41.669342, 67.820251
1649447387.350645, -1.538723, -9.410859, 2.167800, -0.225941, 0.262204, 1.043500, 95.870895, -41.775360, 67.902344
1649447387.383962, -0.906804, -9.407866, 2.234389, -0.321828, 0.358799, 0.994475, 94.347305, -42.396851, 67.794312
1649447387.417293, 0.553809, -9.810241, 1.326537, -0.351373, 0.132222, 1.109126, 92.621002, -42.749222, 67.057800
1649447387.450629, -0.632518, -9.575011, 1.630002, -0.307000, 0.225632, 1.178091, 90.221725, -43.468964, 67.452576
1649447387.483958, 1.720234, -10.223241, 1.725770, -0.152245, 0.268122, 1.367125, 88.279266, -43.364151, 67.392960
1649447387.517294, 2.276437, -10.901997, 2.743157, -0.319857, -0.107896, 1.739832, 86.053223, -43.476410, 67.625519
1649447387.550623, 1.405247, -11.218182, 1.889923, -0.353937, -0.253736, 1.841371, 83.364548, -42.974716, 68.426254
1649447387.583965, 0.480037, -13.372813, 1.429189, -0.196148, -0.251625, 1.812088, 81.678497, -42.641785, 68.720657
1649447387.617291, -2.267309, -11.552771, 1.052102, -0.100581, -0.295903, 1.617676, 80.288834, -42.218781, 69.889374
1649447387.650154, 3.635595, -12.757204, 3.657293, -0.275468, -0.633967, -0.734991, 80.997803, -41.726166, 70.860596
1649447387.683956, 3.953575, -11.161319, 1.817498, -0.278762, -0.572538, -2.874758, 87.910202, -41.267624, 71.931946
1649447387.717297, 3.358766, -11.098322, 1.023820, -0.040037, -0.500219, -3.639617, 95.036652, -40.084198, 72.342911
1649447387.750615, 3.352182, -10.193164, 1.254711, -0.032609, -0.944382, -4.080029, 102.728317, -37.167679, 72.767746
1649447387.783206, 2.769792, -9.299379, 0.524779, -0.026128, -0.839672, -4.193975, 112.258026, -31.152161, 72.126801
1649447387.817285, 2.650980, -8.920496, 0.372298, -0.029638, -0.647575, -4.056332, 117.321564, -25.288971, 71.463669
1649447387.850616, 3.157204, -8.068759, 0.503680, 0.016316, -0.546058, -3.634136, 120.563843, -19.717590, 70.142548
1649447387.883950, 3.026271, -8.406790, 0.728735, -0.065248, -0.659762, -3.180871, 121.944138, -12.924728, 68.565231
1649447387.917286, 2.315941, -8.902091, 0.883460, -0.148486, -0.387872, -2.721977, 121.649780, -9.348740, 67.617325
1649447387.950601, 1.781735, -8.490288, 0.571616, -0.326545, -0.198393, -1.965996, 120.551743, -7.216202, 66.309021
1649447387.983933, 1.433977, -7.398382, -0.081852, -0.289172, 0.281665, -1.181853, 118.342239, -6.715179, 65.538727
1649447388.016538, 0.943764, -7.948899, 0.683395, -0.243456, 0.754817, -0.244799, 115.713974, -7.652466, 65.812698
1649447388.050671, -1.705420, -8.176947, 0.245406, -0.179367, 0.947358, 0.690497, 112.702179, -9.759583, 66.330505
1649447388.083946, -0.103549, -11.940931, 0.970849, 0.078924, 1.158724, 2.024248, 109.249832, -12.025253, 66.922836
1649447388.117280, -14.337826, -15.759982, 5.587917, 0.434167, 2.573709, 2.650420, 102.787766, -14.900055, 68.400177
1649447388.150545, 0.398635, -11.659164, 7.617153, 0.299442, -0.072187, 1.861750, 100.635422, -15.921600, 68.691910
1649447388.183751, 6.014534, -13.144766, -0.618303, -0.010742, 0.606447, 1.449238, 98.230743, -16.886749, 68.705750
1649447388.217284, 3.014599, -11.128998, 1.260697, -0.036687, 0.690757, 1.437419, 95.619385, -17.940430, 68.834839
1649447388.250652, 1.760486, -11.918934, 5.636250, -0.005813, -0.211562, 1.457195, 94.535950, -18.770020, 68.713287
1649447388.283941, 3.431490, -8.688109, 1.355118, -0.102439, -0.017945, 1.472464, 93.635544, -19.524246, 68.289429
1649447388.317270, 2.683750, -8.297854, 2.506430, -0.151605, -0.122033, 1.604296, 91.988922, -20.627716, 68.229691
1649447388.350607, 0.891990, -8.297555, 2.123058, -0.166031, -0.029836, 1.557305, 90.652725, -21.268799, 67.693466
1649447388.383935, -0.647033, -9.262418, 1.746720, -0.175072, -0.113979, 1.325785, 89.407425, -22.007568, 67.567963
1649447388.417299, -1.689708, -9.328259, 1.811962, -0.138108, 0.078780, 1.105047, 88.061523, -22.651688, 67.072861
1649447388.450604, -1.149217, -9.465476, 1.849820, -0.124661, 0.161074, 0.967029, 86.607208, -22.645782, 67.317612
1649447388.483950, -1.330727, -9.402329, 1.918803, -0.128609, 0.153473, 0.803168, 85.581406, -23.170471, 66.681076
1649447388.517283, -0.627730, -9.453655, 1.664419, -0.118599, 0.307193, 0.764464, 84.525284, -23.372391, 66.733963
1649447388.550674, 0.445471, -9.909002, 2.140117, -0.230020, 0.412680, 0.889739, 82.870361, -23.684067, 66.685379
1649447388.583988, 1.370830, -9.016713, 1.361253, -0.314468, 0.419813, 1.226099, 81.256134, -24.048904, 65.724274
1649447388.617273, 2.320730, -10.300005, 1.439663, -0.372069, 0.264544, 1.768891, 79.068787, -24.211334, 64.950928
1649447388.650595, 2.477550, -11.166706, 2.064700, -0.280601, -0.135660, 1.933953, 76.276398, -24.560898, 63.952911
1649447388.683995, 3.815759, -11.939734, 2.565836, -0.348529, -0.571942, 2.168592, 74.382065, -24.251984, 63.664963
1649447388.717213, 0.134524, -13.277644, -0.225055, -0.050308, -0.587053, 2.072900, 72.563217, -24.312180, 62.775101
1649447388.750585, -3.984550, -12.308591, 1.805228, -0.120904, -1.062045, 1.375849, 71.586929, -24.267624, 61.957840
1649447388.783927, 5.931485, -12.610111, 1.266533, -0.316334, -1.136077, -0.840103, 73.236572, -25.497818, 60.936417
1649447388.817273, 0.620697, -11.283723, 0.308104, -0.387047, -0.738729, -2.797112, 76.873276, -27.644180, 59.210617
1649447388.850545, 3.448847, -10.681431, 0.295235, -0.250997, -0.301741, -3.563120, 81.427780, -29.308029, 56.827682
1649447388.883928, 2.426673, -10.066720, 1.209970, -0.272209, -0.260671, -3.871042, 88.693863, -30.730789, 54.118332
1649447388.917198, 2.552069, -9.447071, 1.186925, -0.166735, -0.196350, -3.997413, 93.864609, -30.216492, 52.084290
1649447388.950602, 3.388244, -8.813655, 1.095946, -0.097790, -0.400431, -3.790278, 98.914124, -29.088409, 50.481171
1649447388.983921, 2.937985, -8.192360, 0.862362, -0.183908, -0.569445, -3.418489, 104.314194, -26.803131, 48.496124
1649447389.017242, 2.618359, -7.964611, 0.506224, -0.185139, -0.327110, -2.982680, 107.230057, -24.857285, 47.225174
1649447389.050590, 2.548179, -9.049035, 0.966809, -0.184037, 0.168392, -2.426653, 108.925247, -23.060165, 46.846512
1649447389.083908, 0.685640, -9.290101, 0.535403, -0.265963, 0.619632, -1.853167, 109.747391, -21.403107, 46.416382
1649447389.117195, 0.490063, -8.304288, 0.440234, -0.199292, 0.887336, -1.043358, 108.858521, -20.744583, 47.241180
1649447389.150584, -1.681627, -9.062053, 0.784700, -0.086947, 0.903865, 0.171299, 107.359512, -21.200012, 47.420517
1649447389.183921, -6.186318, -9.809792, -1.474379, 0.039371, 1.536965, 1.552863, 104.383530, -22.224136, 47.455521
1649447389.217252, -16.600945, -16.476597, 2.440589, 0.286980, 2.895659, 2.683362, 97.516022, -23.459488, 48.007721
1649447389.250584, -3.639336, -12.094310, 4.817134, 0.307124, -0.544992, 1.648443, 94.793472, -23.982162, 47.505417
1649447389.283913, 2.921824, -16.183307, 0.750133, 0.250137, -0.146159, 1.367133, 92.970947, -24.257751, 47.732224
1649447389.317281, 2.250998, -11.377097, 4.319140, 0.285523, -0.313769, 1.382469, 90.780975, -24.552383, 48.282822
1649447389.350573, 4.739173, -7.678354, 3.364452, 0.004356, -0.199529, 1.739544, 89.077072, -24.892212, 48.673370
1649447389.383923, 1.928679, -8.561515, 1.789366, -0.067357, 0.045087, 1.762012, 86.690552, -25.198593, 48.964127
1649447389.417203, 0.843058, -8.255207, 1.843835, -0.064612, 0.047344, 1.745588, 83.487991, -25.678635, 49.140793
1649447389.450300, 0.431106, -8.492533, 1.562665, -0.018459, 0.026333, 1.617047, 81.204605, -25.745102, 49.192261
1649447389.483934, -0.998382, -9.195081, 1.835904, 0.021183, 0.099830, 1.446775, 78.979965, -25.954437, 49.209396
1649447389.517262, -1.136198, -9.608829, 1.974917, 0.029349, 0.161493, 1.341586, 76.323746, -25.518265, 49.154526
1649447389.550586, 0.036960, -9.529372, 2.306364, -0.016767, 0.237960, 1.377096, 74.299164, -25.426575, 49.191147
1649447389.583921, -1.156998, -8.348731, 1.705869, 0.009656, 0.372922, 1.415053, 72.057953, -25.000275, 48.717773
1649447389.617251, -1.623867, -10.005518, 2.242768, -0.058088, 0.177869, 1.417049, 69.816010, -24.351837, 48.784546
1649447389.650568, -1.230620, -8.895806, 2.161216, -0.108462, 0.221186, 1.390448, 66.921494, -23.469742, 48.281281
1649447389.683904, -1.931971, -9.558252, 1.825279, -0.144104, 0.159412, 1.346742, 64.860641, -22.880051, 48.597931
1649447389.717250, -1.291821, -9.814431, 1.360505, -0.057886, 0.229476, 1.375351, 62.547928, -22.159210, 48.133194
1649447389.750233, 2.515408, -10.791116, 2.513014, 0.045584, 0.204345, 1.646392, 59.265961, -20.783218, 47.866898
1649447389.783838, 2.686444, -10.939257, 2.589778, -0.021641, -0.387612, 2.095228, 55.910797, -19.325958, 47.974716
1649447389.817184, 0.119261, -15.043218, 1.698985, -0.002583, -0.746767, 1.852992, 52.684982, -18.201019, 48.607635
1649447389.850516, -7.459883, -13.177836, 0.279673, -0.242554, -0.580488, 1.211419, 48.661728, -18.521805, 50.439575
1649447389.883851, -3.076100, -16.697013, 1.147571, -0.839842, -0.376504, -1.153298, 48.137863, -22.465134, 50.992508
1649447389.917270, 3.032705, -13.907917, -0.508618, -0.748330, 1.058613, -4.031216, 50.099640, -30.946411, 49.578201
1649447389.950518, 4.893898, -12.721591, 1.756596, -0.583051, 1.506876, -4.641771, 55.299271, -40.871658, 46.768356
1649447389.983896, 5.575796, -10.960206, 3.342006, -0.316522, 0.727736, -5.014571, 68.408005, -53.607346, 43.354187
1649447390.017273, 5.505467, -7.889792, 3.654599, 0.386729, -0.256610, -4.908962, 82.096832, -60.388931, 42.496658
1649447390.050523, 4.525640, -6.570438, 3.527707, 0.433424, -0.971464, -4.533240, 97.503281, -63.435501, 41.879852
1649447390.083889, 2.629731, -6.968922, 3.169324, 0.389565, -0.606146, -4.121490, 118.097092, -62.374893, 39.573456
1649447390.117217, 3.223493, -6.517316, 2.416797, 0.556398, -0.632572, -3.341512, 131.686478, -57.832123, 37.752335
1649447390.150565, 2.877830, -6.771251, 2.501342, 0.604294, -0.754560, -2.571537, 143.104828, -51.094650, 35.549606
1649447390.183846, 2.275838, -7.614609, 2.854487, 0.414761, -0.543317, -1.694110, 153.286621, -40.992798, 32.052628
1649447390.217225, 0.630722, -9.237429, 2.655918, 0.003720, 0.034256, -0.643501, 157.614609, -34.307220, 29.375336
1649447390.250516, -1.907281, -8.752154, 0.472256, 0.099354, 0.713679, 0.291374, 159.896133, -28.552505, 28.704376
1649447390.283891, -3.505710, -9.575310, 0.808791, 0.726796, 1.724244, 1.388790, 160.845642, -25.365555, 30.059799
1649447390.317209, -6.455965, -12.063484, 0.895880, 0.755386, -1.097095, 3.302541, 159.778229, -25.843018, 28.276382
1649447390.350555, -7.851036, -21.604079, 0.413748, 0.446370, 1.917878, 1.870798, 158.932877, -28.518143, 28.114471
1649447390.383891, -6.373963, -16.493506, -0.284311, 0.099930, 2.641020, 1.313899, 158.804672, -29.397964, 30.859573
1649447390.417220, 4.461595, -12.270284, 11.476157, 0.263307, 1.179724, 1.568030, 157.698959, -31.712143, 34.607376
1649447390.450563, -1.664868, -11.872547, -0.401777, 0.026078, 1.008356, 0.981049, 155.873184, -32.636490, 35.603699
1649447390.483886, 10.281899, -9.431808, 7.078906, -0.354928, -0.061193, 1.560180, 153.556381, -33.792816, 36.040298
1649447390.517216, 2.160168, -8.833257, 1.638083, -0.427143, 0.170523, 1.767215, 149.511078, -35.292542, 35.685181
1649447390.550550, 2.096572, -8.467842, 3.176507, -0.442272, -0.054331, 1.760234, 146.693787, -36.219421, 35.226013
1649447390.583882, -0.056862, -8.431780, 1.858649, -0.379223, -0.057306, 1.681019, 144.211273, -37.224854, 34.463852
1649447390.617229, -0.876278, -8.781184, 1.555333, -0.239820, 0.145983, 1.556455, 142.009888, -37.796600, 33.896332
1649447390.650557, -1.001973, -9.343522, 2.275090, -0.241844, 0.126688, 1.358367, 139.438492, -38.630081, 33.916107
1649447390.683811, -1.268328, -9.328259, 2.286014, -0.293432, 0.107190, 1.263853, 137.334579, -39.221375, 33.558792
1649447390.717216, -1.010054, -9.307309, 2.602647, -0.358381, 0.255809, 1.209368, 136.029144, -39.684494, 33.271683
1649447390.750547, 0.225654, -9.739014, 1.728763, -0.321187, 0.149514, 1.284379, 133.866455, -40.175415, 33.169861
1649447390.783880, 1.533935, -10.292374, 2.288408, -0.264411, 0.225856, 1.480176, 131.956848, -40.273941, 32.651840
1649447390.816965, 2.118270, -9.842713, 2.963273, -0.440899, -0.136270, 1.828164, 129.761047, -39.828033, 32.738617
1649447390.850543, 1.431583, -9.970503, 2.084901, -0.452650, -0.299911, 2.041879, 126.606613, -38.968613, 31.460892
1649447390.883877, 0.098910, -10.863391, 1.208174, -0.205251, -0.033803, 2.154217, 123.906357, -37.306152, 31.051651
1649447390.917211, 0.129736, -14.824148, 2.678812, -0.292772, -0.184851, 1.976291, 121.191208, -34.026031, 31.326935
1649447390.950543, -1.466299, -14.228890, 2.308609, -0.261601, -0.719740, 1.280582, 117.839844, -27.988678, 31.984680
1649447390.983893, 8.135946, -14.393791, 2.307262, -0.264688, -0.652289, -2.126439, 116.411026, -20.213272, 33.365280
1649447391.017208, 3.471443, -12.216713, 1.270274, -0.216595, -0.924423, -3.303298, 113.839935, -11.005066, 34.851196
1649447391.050542, 5.842600, -10.686220, 1.195604, -0.138113, -1.023773, -3.890478, 109.501724, -2.608871, 36.961411
1649447391.083440, 2.683451, -8.706215, 1.327884, -0.226298, -0.949098, -4.332086, 100.981598, 3.909561, 40.027252
1649447391.117161, 2.790891, -6.925228, 0.889296, 0.013948, -0.722670, -4.379645, 94.571045, 4.562286, 42.445694
1649447391.150546, 3.130568, -6.726809, 1.553388, 0.156443, -0.850629, -4.145114, 89.128708, 2.418304, 44.748566
1649447391.183653, 2.539200, -7.691971, 3.085677, 0.090339, -0.679581, -3.502439, 85.925568, -4.651260, 47.970535
1649447391.217203, 2.899977, -8.811111, 3.561974, 0.069579, -0.357515, -2.950164, 86.596390, -10.573090, 49.695389
1649447391.250537, 1.743128, -9.300426, 3.786131, 0.025394, -0.311412, -2.196338, 89.275665, -15.797607, 50.330353
1649447391.283854, -0.926107, -9.063999, 1.590797, 0.129252, -0.257571, -1.013971, 93.746811, -20.605164, 51.276901
1649447391.317198, -3.335721, -9.872042, 1.604714, 0.129734, 0.795881, 0.012001, 95.944901, -22.857483, 51.202744
1649447391.350529, -2.058864, -13.686454, 2.281525, -0.015213, 0.100547, 0.743666, 97.032684, -24.702576, 51.325134
1649447391.383864, -11.748647, -11.923573, 0.606332, 0.378395, 0.514890, 2.075963, 96.325760, -26.125351, 51.454041
1649447391.417196, -7.658602, -21.221904, 7.207594, 0.192028, 1.964836, 1.977716, 92.181412, -27.542938, 51.321991
1649447391.450479, -1.247828, -11.211149, 1.619677, -0.071214, 1.094336, 1.462535, 89.831177, -28.172928, 51.316772
1649447391.483862, -1.890073, -27.087249, 1.590199, 0.320406, 0.110595, 1.104413, 87.788895, -28.039307, 50.895081
1649447391.517193, 10.279505, -5.550208, 5.694160, -0.039388, 0.184522, 1.367391, 86.263275, -27.789444, 50.807556
1649447391.550529, 3.737798, -10.196905, 2.925415, -0.264516, 0.085659, 1.614368, 84.951233, -28.069427, 50.598633
1649447391.583859, 3.231873, -9.179818, 3.163189, -0.371864, 0.145720, 1.811555, 83.108521, -28.171234, 50.689163
1649447391.617190, 1.123180, -8.590994, 1.163133, -0.372318, -0.115969, 1.902816, 80.775665, -28.217606, 50.357178
1649447391.650508, -0.287454, -8.765023, 1.348235, -0.286846, 0.026799, 1.916984, 78.890900, -28.319061, 50.050354
1649447391.683592, -0.771681, -8.697686, 1.724424, -0.289703, 0.072382, 1.719092, 77.147217, -28.017075, 49.606491
1649447391.717179, -2.496853, -9.108890, 1.807473, -0.229049, 0.378953, 1.452431, 74.739090, -27.925079, 48.851212
1649447391.750592, -0.420482, -9.511116, 1.657536, -0.192263, 0.087313, 1.368679, 73.079193, -27.451309, 48.583954
1649447391.783871, -1.061230, -9.418191, 1.753753, -0.141070, 0.195554, 1.369612, 71.652878, -27.078171, 48.079437
1649447391.817188, 0.027234, -9.989806, 1.735497, -0.147022, 0.212230, 1.467562, 69.985565, -26.502258, 48.167511
1649447391.850523, 0.669179, -9.643246, 2.051831, -0.140025, 0.058848, 1.748911, 67.509277, -25.503647, 47.796417
1649447391.883854, 0.418087, -9.880571, 1.275062, -0.119952, 0.100301, 1.970536, 65.537186, -24.489334, 47.848389
1649447391.917187, -0.451756, -10.318860, 1.839944, -0.056695, 0.211703, 2.019062, 63.337143, -23.344101, 47.217941
1649447391.950522, -1.466598, -13.703363, 3.576788, -0.062403, -0.242997, 1.710261, 60.962189, -21.945801, 47.332779
1649447391.983804, -2.145354, -13.275848, 2.004845, -0.181776, -0.620911, 1.299078, 59.685303, -21.161118, 48.427002
1649447392.017186, -4.164564, -15.336059, 2.191293, -0.129573, 0.295273, -0.371559, 59.561279, -21.303696, 48.916428
1649447392.050504, 4.528932, -11.411962, 1.444601, -0.183532, 0.385480, -2.464482, 60.998840, -24.359970, 49.391464
1649447392.083835, 1.856404, -10.437672, 0.476147, -0.112891, 0.474733, -3.158490, 63.602554, -27.595459, 50.024857
1649447392.117187, 4.096479, -9.649830, 1.304092, 0.020841, 0.100843, -3.681624, 67.093475, -31.564682, 50.883499
1649447392.150501, 2.487127, -8.565406, 1.282843, 0.054830, -0.114608, -4.061881, 71.888046, -35.404892, 51.657837
1649447392.183431, 2.164209, -7.963863, 0.837372, 0.174937, -0.013132, -4.108599, 79.850021, -39.774841, 52.888611
1649447392.216666, 3.102436, -7.775170, 0.946159, 0.221792, -0.176059, -3.884660, 86.340256, -42.637848, 53.769073
1649447392.250518, 2.759766, -8.034043, 1.139191, 0.171148, -0.161644, -3.514041, 93.101242, -44.527954, 54.913315
1649447392.283782, 2.665195, -9.146000, 1.137545, 0.183763, 0.171909, -2.983602, 101.653824, -45.608276, 56.186844
1649447392.317127, 2.119766, -9.594763, 1.106570, 0.211759, 0.377737, -2.531096, 107.196533, -45.838745, 57.050262
1649447392.350510, 0.925359, -9.564836, 0.646734, 0.279154, 0.578873, -1.961381, 111.753326, -45.712799, 57.985779
1649447392.383832, 1.422605, -8.968231, 0.273238, 0.391085, 0.389009, -0.686212, 115.775986, -45.734131, 59.867416
1649447392.417173, -4.802020, -9.257480, -2.423980, 0.226340, 0.316955, 0.799693, 116.852737, -47.555496, 60.659012
1649447392.450505, -21.591808, -15.680824, -1.028010, -0.176396, 2.184582, 2.988910, 112.788849, -51.401199, 62.197220
1649447392.483844, 9.520393, -20.169653, 7.681048, -0.031999, -0.601107, 1.726586, 107.393463, -54.516953, 63.968781
1649447392.517171, -4.572476, -22.090999, -3.673603, -0.107172, 0.876440, 0.891264, 104.347107, -55.917038, 64.109283
1649447392.550502, 12.048221, -6.736386, 5.741894, -0.052468, -0.300900, 1.455093, 102.511169, -56.437210, 64.156662
1649447392.583827, 2.491915, -9.264962, 3.522020, -0.332022, 0.260256, 1.742647, 99.509781, -57.245773, 63.413940
1649447392.617121, 2.851494, -8.797195, 2.169596, -0.380054, 0.152726, 1.701362, 95.529266, -57.895264, 62.785904
1649447392.650561, 2.119467, -8.700828, 1.222689, -0.286323, -0.038346, 1.821538, 92.270203, -58.431030, 62.036240
1649447392.683520, 1.143979, -8.534581, 1.144279, -0.177456, -0.103299, 1.841088, 89.275681, -58.768326, 61.370392
1649447392.717163, -0.433949, -9.039009, 2.388366, -0.182688, -0.147302, 1.742136, 85.409943, -58.943939, 60.751785
1649447392.750496, -1.075445, -9.153781, 2.524686, -0.231878, -0.178068, 1.640637, 82.567596, -58.848526, 60.246628
1649447392.783832, -1.751807, -9.118317, 2.623297, -0.357597, -0.217924, 1.478562, 79.835037, -58.917236, 59.781967
1649447392.817124, -1.185728, -9.350255, 1.118092, -0.282305, 0.134148, 1.494119, 77.536850, -59.201431, 59.304001
1649447392.850500, 0.864157, -9.453655, 1.111957, -0.200700, 0.008704, 1.626802, 73.747864, -58.838562, 58.167557
1649447392.883782, 0.175525, -10.139145, 2.397494, -0.196160, -0.096280, 1.705708, 71.061462, -58.416031, 57.853409
1649447392.917155, 0.041450, -9.955988, 1.523610, -0.188229, -0.150642, 1.898543, 68.172760, -57.773758, 58.054047
1649447392.950491, -1.248127, -8.996362, 1.264138, -0.012541, 0.214482, 1.955678, 63.886658, -56.193192, 57.341949
1649447392.983835, -3.140295, -11.197382, 2.836231, 0.034568, 0.127945, 1.636901, 61.314972, -54.798584, 56.846313
1649447393.017164, -2.424428, -14.681993, 3.059191, -0.256482, -0.951195, 1.090778, 59.970230, -53.380524, 56.700806
1649447393.050425, -4.095880, -13.917195, 0.527323, -0.126826, -0.369250, -0.183180, 61.026901, -51.244568, 56.178864
1649447393.083810, 6.400150, -12.268189, 0.585083, -0.328425, 0.619666, -2.270288, 65.131332, -51.381607, 54.404144
1649447393.117143, 3.410690, -11.539453, 1.049558, -0.147930, 0.428532, -3.324265, 71.175461, -51.187515, 52.860794
1649447393.150419, 5.668572, -9.722105, 1.822885, -0.049033, -0.033770, -3.762300, 80.742294, -50.485947, 52.329758
1649447393.183275, 3.412785, -8.795549, 2.200122, -0.002976, -0.278539, -4.132375, 88.574539, -49.219666, 52.251740
1649447393.217151, 3.764284, -8.176947, 1.754351, 0.244811, -0.237376, -4.206098, 96.184448, -46.484070, 52.536209
1649447393.250484, 3.622128, -7.540089, 2.430564, 0.299634, -0.359441, -3.912784, 102.998093, -42.818832, 52.598846
1649447393.283819, 2.912397, -7.222109, 2.345569, 0.297856, -0.206974, -3.543185, 109.350876, -36.949646, 52.992691
1649447393.317102, 3.257910, -7.998579, 2.132785, 0.291502, -0.120193, -3.016238, 112.450546, -32.786133, 53.134964
1649447393.350226, 2.670882, -8.430433, 1.435474, 0.235986, 0.159362, -2.240502, 114.096542, -29.291397, 53.310440
1649447393.383617, 1.858499, -9.183709, 1.813009, 0.257250, 0.335267, -1.505387, 114.361786, -26.484787, 53.781403
1649447393.417098, -0.780210, -9.480141, 0.670227, 0.131200, 0.055395, -0.645452, 113.950073, -25.978058, 53.524307
1649447393.450410, 0.300023, -9.572916, -0.912640, 0.420431, 0.017248, 0.752407, 113.300049, -26.432404, 53.788177
1649447393.483817, -17.060632, -12.263101, -2.317438, 0.131551, 1.465008, 2.789240, 109.216415, -28.687042, 54.555344
1649447393.517145, -8.015638, -26.406099, 12.398224, 0.036251, 1.859902, 1.897464, 104.989685, -30.222488, 55.218567
1649447393.550415, -6.407033, -13.430274, 3.031658, 0.075981, 0.237589, 1.253301, 103.194046, -31.138702, 54.964264
1649447393.583811, 6.925378, -12.154165, 1.216554, -0.124896, 0.368451, 1.128704, 101.663544, -32.033203, 55.035507
1649447393.617143, 5.171176, -9.818471, 5.155015, -0.203127, 0.067841, 1.457674, 99.154984, -32.583267, 54.643036
1649447393.650411, 3.036596, -8.400356, 3.161094, -0.338006, 0.154951, 1.529629, 97.351990, -33.047180, 54.287369
1649447393.683002, 2.186654, -8.988282, 2.308609, -0.378900, 0.101704, 1.593537, 95.351990, -33.850555, 54.428116
1649447393.717328, 2.596362, -8.170213, 1.265784, -0.301125, -0.072405, 1.638469, 92.866913, -34.532150, 53.471054
1649447393.750543, 0.273538, -8.681974, 2.220622, -0.263516, -0.056337, 1.630622, 90.856445, -34.910507, 53.278305
1649447393.783818, -0.161309, -9.484181, 2.574515, -0.326885, -0.110570, 1.499229, 88.714951, -35.114868, 52.786285
1649447393.817212, -0.922516, -9.181314, 1.977162, -0.325029, -0.055480, 1.464445, 86.606964, -35.548904, 52.094360
1649447393.850678, -1.417667, -9.139266, 1.965041, -0.330770, 0.059145, 1.376482, 85.110062, -35.982071, 51.507706
1649447393.883959, -0.975637, -9.204059, 2.004096, -0.435589, 0.182604, 1.379362, 83.126129, -35.846481, 50.681274
1649447393.917135, -0.049380, -9.790340, 1.744625, -0.444563, 0.251475, 1.522206, 80.477676, -36.064392, 49.938812
1649447393.950521, 0.715417, -9.427468, 1.704672, -0.427436, 0.166983, 1.683270, 78.477692, -35.918015, 49.308640
1649447393.984000, 2.361431, -10.462362, 1.766322, -0.369031, -0.097057, 1.934894, 76.192444, -35.629257, 48.460342
1649447394.017206, 1.804630, -10.781988, 2.247557, -0.324566, -0.043224, 2.098283, 74.209015, -35.116714, 48.473358
1649447394.050519, 1.378611, -13.422343, 2.251148, -0.237933, -0.187789, 2.013707, 71.617783, -34.266327, 48.127899
1649447394.083989, -5.029021, -12.376377, 2.110938, -0.261663, -0.255275, 1.409921, 70.566132, -33.476868, 47.782608
1649447394.117179, 1.923741, -14.971990, 4.325724, -0.522831, -0.770068, -0.681258, 71.932632, -33.212250, 47.894653
1649447394.150604, 7.615507, -10.403255, 1.798195, -0.123393, -0.385377, -2.991399, 77.996704, -33.558777, 48.347672
1649447394.184004, 2.783708, -10.912921, 1.696890, -0.011169, -1.013427, -3.409378, 84.301544, -33.105087, 48.726105
1649447394.217334, 3.832668, -10.476578, 1.443404, 0.088818, -0.929302, -4.023370, 90.745117, -31.389313, 49.324738
1649447394.250474, 2.308310, -9.551368, 1.036091, 0.026636, -0.695003, -4.269622, 97.824081, -27.334793, 49.849670
1649447394.284000, 3.115455, -8.688558, 0.650175, 0.156708, -0.418138, -4.197526, 101.952072, -23.781769, 50.685120
1649447394.317331, 2.279280, -8.241141, 0.868197, -0.044718, -0.338570, -3.786404, 104.442780, -20.093918, 52.083313
1649447394.350648, 2.660557, -8.136694, 0.612616, -0.121118, -0.210079, -3.376645, 105.772919, -16.912659, 52.838867
1649447394.383998, 2.661454, -8.555380, 0.668880, -0.112012, 0.042905, -2.868709, 105.565674, -13.863113, 55.215057
1649447394.417312, -0.023942, -8.300996, -0.127940, -0.190884, 0.698619, -1.995002, 104.275970, -12.660645, 56.958145
1649447394.450665, 1.271620, -7.335385, -0.155773, -0.106277, 1.020374, -0.859730, 102.285904, -12.603287, 59.232300
1649447394.483998, -2.513463, -7.977630, -2.093729, -0.126461, 0.849684, 0.954887, 98.055267, -14.508240, 62.226944
1649447394.517112, -24.958654, -21.899463, -1.382053, -0.489358, 2.673797, 3.391062, 92.342545, -16.735489, 63.786789
1649447394.550659, 9.921422, -25.602994, 9.925313, 0.077500, -1.291909, 1.962027, 88.244354, -16.968613, 65.292526
1649447394.583968, -8.878747, -18.658163, -4.204667, 0.027669, 0.532010, 1.064218, 86.525482, -17.531555, 65.819016
1649447394.617125, 9.348011, -7.007080, 5.441571, 0.098540, -0.308004, 1.418978, 85.859177, -18.074753, 66.069412
1649447394.650655, 3.138050, -9.248352, 3.252224, -0.340758, 0.171722, 1.653650, 84.749573, -18.672165, 65.880936
1649447394.683799, 3.133262, -8.905832, 1.934066, -0.341144, 0.029609, 1.760096, 83.291702, -19.248444, 65.430679
1649447394.717298, 2.784457, -8.360403, -0.723348, -0.184088, 0.145409, 1.925722, 80.895401, -20.273315, 65.129578
1649447394.750651, 0.657657, -8.993819, 1.979705, -0.137536, -0.473670, 1.885947, 79.676361, -20.512131, 65.386719
1649447394.783989, -0.602142, -8.763077, 2.678513, -0.240387, -0.493922, 1.723336, 78.360229, -20.465439, 65.267120
1649447394.817300, -2.216283, -8.818593, 1.571943, -0.244878, -0.216065, 1.529673, 76.918320, -20.979767, 65.731308
1649447394.850633, -1.397765, -9.222166, 1.603068, -0.237700, 0.011393, 1.381843, 75.747849, -21.013504, 65.596603
1649447394.883984, -2.021754, -9.245659, 2.738069, -0.408992, 0.113539, 1.232521, 74.275162, -20.862473, 65.155884
1649447394.917138, -0.634613, -9.650877, 1.086968, -0.382548, 0.116204, 1.316009, 71.975815, -21.155792, 64.769104
1649447394.950638, 1.427992, -10.530297, 0.551564, -0.327570, -0.206831, 1.560570, 71.110870, -20.677856, 64.181808
1649447394.983783, 3.217059, -11.169549, 2.097770, -0.213770, 0.056594, 1.843342, 69.423050, -20.714813, 64.510544
1649447395.017289, 1.935712, -10.555437, 2.186355, -0.281941, -0.123070, 2.084560, 67.161407, -20.293579, 64.232788
1649447395.050491, 0.190489, -10.751013, 0.846650, -0.137762, -0.096319, 1.887113, 65.844955, -20.149765, 64.018921
1649447395.083789, -2.423830, -13.350368, 1.979257, -0.111013, -0.268667, 1.583225, 64.536194, -20.276199, 63.539413
1649447395.117300, -2.771887, -13.592182, 3.610306, -0.197470, -1.597889, 0.380163, 65.366257, -21.093781, 63.671371
1649447395.150629, 5.310489, -10.517728, -0.108338, -0.102620, -0.448850, -2.145655, 69.394516, -24.512589, 62.314529
1649447395.183978, 1.485004, -10.812364, 1.155950, -0.019829, -0.236158, -3.351445, 73.987778, -27.482819, 61.243439
1649447395.217118, 5.273828, -10.111013, 0.891092, 0.171435, -0.098765, -3.908712, 79.432404, -29.327225, 60.674759
1649447395.250440, 1.831864, -9.727641, 1.577779, 0.124535, -0.205537, -4.165548, 86.878586, -30.745224, 59.941391
1649447395.283971, 3.482366, -8.626009, 0.805499, 0.268835, -0.197692, -4.074560, 92.548965, -30.396454, 59.487274
1649447395.317310, 3.053355, -7.750330, 1.012897, 0.212567, -0.277933, -3.737621, 96.863602, -29.701324, 59.342087
1649447395.350435, 3.251027, -7.680898, 1.020528, 0.182912, -0.006760, -3.345633, 101.012802, -29.327194, 59.704865
1649447395.383769, 2.479196, -8.708909, 1.707215, 0.157376, 0.159866, -2.710171, 103.241028, -29.733398, 60.385223
1649447395.417305, 2.749741, -8.983494, 1.596633, 0.204944, 0.092312, -2.137100, 105.089264, -31.152298, 61.531769
1649447395.450027, 0.960374, -10.000880, 1.934665, 0.163263, 0.323501, -1.500514, 106.779648, -33.096115, 62.941513
1649447395.483783, -0.197372, -11.115829, 2.068141, 0.179269, 0.398683, -0.578428, 108.543091, -36.911896, 64.764786
1649447395.517309, -3.526659, -10.197653, 1.277905, 0.397033, 0.217644, 0.262103, 109.950653, -39.684158, 66.974854
1649447395.550637, -1.109264, -8.809016, 0.319327, 0.840854, -0.092410, 1.384447, 109.657394, -42.261337, 69.917679
1649447395.583864, -11.861025, -9.881319, -1.916708, 0.572580, -0.371011, 3.139663, 105.926224, -47.252441, 72.856094
1649447395.617309, 10.072855, -18.005444, -1.719336, -0.278103, 1.189946, 1.811858, 100.220642, -49.879623, 75.167938
1649447395.650433, -1.995717, -13.986477, 5.477634, 0.043639, 2.410340, 1.553598, 94.207443, -52.531769, 75.975845
1649447395.683944, -8.657433, -16.373796, 1.076792, -0.096192, 0.482279, 0.546055, 91.640488, -53.361557, 76.465500
1649447395.717165, 9.897480, -11.905467, 6.782624, -0.386315, -0.404817, 1.432109, 89.362976, -53.891479, 76.363480
1649447395.750630, 1.872864, -8.524256, 1.736245, -0.406692, 0.566096, 1.590896, 86.820221, -54.763626, 75.836472
1649447395.783795, 4.336947, -8.718036, 3.219752, -0.563012, -0.301113, 1.651596, 84.362000, -55.438614, 75.542175
1649447395.817097, -0.825102, -8.710854, 0.869095, -0.359279, 0.162144, 1.607320, 81.260849, -56.869476, 74.744965
1649447395.850627, 1.052850, -8.900744, 1.331924, -0.295424, -0.054136, 1.506328, 78.541519, -57.502762, 74.443909
1649447395.883960, -2.173785, -8.906879, 2.914791, -0.331656, 0.036228, 1.293108, 76.269852, -58.003632, 74.701691
1649447395.917277, -1.303493, -9.308357, 1.980753, -0.348566, 0.340263, 1.126431, 73.070099, -58.748489, 73.954727
1649447395.950624, -0.311994, -9.133281, 1.913865, -0.411797, 0.596293, 1.207060, 70.008728, -59.024216, 73.037064
1649447395.983959, 1.221043, -9.585186, 1.423054, -0.455489, 0.320728, 1.373033, 67.098190, -59.644928, 72.545670
1649447396.017090, 1.054347, -10.129418, 1.860893, -0.431940, 0.105835, 1.574579, 63.144699, -60.186859, 72.067856
1649447396.050432, 3.818303, -11.254394, 3.392733, -0.562806, 0.083148, 1.900960, 59.523560, -60.235184, 71.528656
1649447396.083816, 2.894141, -11.276391, 2.191143, -0.519104, -0.194301, 2.106482, 56.272141, -60.271774, 71.419067
1649447396.117083, 1.807473, -13.125313, 0.506823, -0.228585, -0.116865, 2.149160, 52.404694, -60.182068, 71.783524
1649447396.150440, -4.216488, -13.218986, 1.913566, -0.301902, -0.555522, 1.392365, 51.495972, -60.471710, 72.640381
1649447396.183939, 6.372018, -14.024186, 3.390788, -0.413441, -0.491093, -1.100335, 55.579422, -61.780746, 72.752777
1649447396.217091, 3.560926, -10.155156, 2.116923, -0.186550, -0.634239, -2.902670, 65.589264, -64.597565, 73.403183
1649447396.250430, 3.855263, -9.545682, 0.654216, -0.003116, -0.337120, -3.647089, 82.343613, -66.272476, 73.491989
1649447396.283849, 2.309357, -8.764873, 1.172261, 0.038987, -0.291726, -3.865190, 95.360229, -64.125198, 73.097488
1649447396.317092, 2.515258, -8.264335, 1.240496, 0.204928, -0.150026, -3.991543, 107.235809, -59.424988, 72.724899
1649447396.350606, 2.844162, -8.189367, 1.277007, 0.274500, -0.594675, -3.766694, 120.165985, -50.157196, 71.416336
1649447396.383745, 3.410241, -8.087015, 1.042525, 0.319461, -0.581466, -3.443862, 127.112717, -42.494965, 70.141830
1649447396.417091, 2.940828, -8.181137, 0.956334, 0.268323, -0.307735, -3.017080, 131.898346, -35.281342, 68.706543
1649447396.450599, 3.043928, -9.081805, 1.182885, 0.209798, 0.351724, -2.420173, 135.527496, -26.150391, 67.873611
1649447396.483945, 1.662025, -9.828497, 1.324891, 0.121367, 0.631036, -1.826673, 135.951065, -20.693054, 67.662247
1649447396.517271, -0.037709, -9.999084, 0.611719, 0.204924, 0.600607, -1.042327, 135.596863, -15.868912, 67.370728
1649447396.550572, -0.571466, -10.168923, 0.888548, 0.371334, 0.714591, -0.096058, 134.067902, -11.951965, 67.753174
1649447396.583948, -9.526678, -12.357073, -2.301426, 0.181711, 0.323891, 1.727217, 132.324814, -10.238678, 66.267044
1649447396.617275, -17.836204, -15.020323, -1.918953, 0.337310, 1.547456, 3.052498, 129.761765, -11.868210, 66.861572
1649447396.650430, 10.689661, -13.423241, 1.115399, 0.118022, 0.225236, 1.763553, 127.529724, -12.705521, 67.566101
1649447396.683809, 4.658668, -18.797775, 3.553743, 0.181123, 0.208530, 1.357931, 125.354324, -13.711075, 67.471420
1649447396.717028, 3.033902, -8.166472, 3.269881, 0.064005, -0.047175, 1.306499, 124.842468, -14.520859, 67.301422
1649447396.750612, 6.590339, -8.316409, 4.838532, -0.176208, -0.027845, 1.624510, 123.094193, -15.467987, 66.874954
1649447396.783754, 2.527229, -8.934712, 2.491017, -0.321022, 0.254654, 1.843958, 120.226059, -17.265259, 66.485535
1649447396.817251, 2.914492, -8.344391, 1.818995, -0.311761, -0.085833, 1.891550, 118.113846, -18.587967, 65.572647
1649447396.850400, -0.298228, -8.573636, 1.228674, -0.245868, -0.009381, 1.892796, 116.223831, -19.359894, 64.849518
1649447396.883726, 0.419135, -8.771607, 1.977162, -0.213969, -0.144924, 1.841085, 114.332001, -19.940430, 64.081329
1649447396.917070, -1.612794, -8.973019, 2.442086, -0.258725, -0.133706, 1.734408, 112.335526, -21.275787, 63.410187
1649447396.950398, -2.690334, -8.824578, 2.278233, -0.325006, 0.025092, 1.506271, 110.634506, -21.937546, 62.560684
1649447396.983741, -2.810493, -9.211392, 1.442058, -0.269810, 0.198028, 1.374131, 108.757416, -22.015717, 62.355560
1649447397.017077, -0.363769, -9.376143, 1.836203, -0.288572, 0.186728, 1.516575, 106.572342, -22.847763, 61.683273
1649447397.050410, 0.226701, -10.053552, 1.601272, -0.181289, 0.098653, 1.599567, 104.950165, -23.207932, 61.339645
1649447397.083771, 0.918176, -10.100538, 2.216133, -0.159853, 0.126013, 1.823694, 102.911942, -22.875671, 60.680099
1649447397.117055, 1.736245, -10.659584, 1.830068, -0.249025, -0.228600, 2.138147, 100.100601, -22.226044, 60.026154
1649447397.150390, -0.619200, -13.280637, 2.268207, 0.019582, -0.275241, 1.748031, 98.196030, -21.479446, 59.247559
1649447397.183736, -4.586093, -13.001263, 2.116025, -0.178377, -0.919618, 1.396532, 96.903198, -19.701767, 58.382401
1649447397.217003, 0.074968, -15.785570, 4.252551, -0.297207, -0.856156, -0.973690, 96.470627, -17.021255, 57.071747
1649447397.250403, 6.249914, -12.524069, 1.499369, -0.179315, -0.251694, -3.042784, 96.594238, -14.251205, 56.023163
1649447397.283736, 2.430264, -12.514342, 1.711705, -0.051918, -0.334923, -3.418280, 96.365082, -10.780228, 54.823853
1649447397.317085, 3.820398, -9.683798, 1.466897, -0.035700, -0.360787, -3.882397, 95.348160, -7.891602, 53.871582
1649447397.350400, 1.681627, -7.564031, 0.949151, 0.020968, 0.085259, -4.219219, 93.136047, -6.300049, 52.962387
1649447397.383926, 3.674052, -6.728754, 1.179294, 0.199157, 0.157949, -4.184279, 91.470459, -6.226898, 52.718842
1649447397.417083, 3.259107, -6.319196, 1.389535, 0.055783, -0.329917, -3.825618, 90.621826, -6.923065, 52.386749
1649447397.450409, 3.433136, -7.093571, 0.913089, 0.023113, -0.248798, -3.413117, 91.245697, -8.856094, 52.431335
1649447397.483723, 2.682104, -7.738359, 0.877325, -0.027737, 0.160570, -2.933226, 92.544754, -10.269150, 52.410019
1649447397.517054, 3.644274, -9.041852, 1.448193, -0.105420, 0.393313, -2.385541, 93.413773, -11.141251, 53.100647
1649447397.550405, 1.986290, -9.960178, 0.598700, -0.066947, 0.434596, -1.391088, 94.875870, -12.038971, 53.503754
1649447397.583716, -1.408539, -11.731139, 0.794725, 0.000386, 0.753293, -0.665122, 95.476349, -12.722382, 54.254257
1649447397.617074, -2.445527, -12.680889, 0.781108, -0.058369, 0.135654, 0.228158, 95.339890, -13.319656, 54.846375
1649447397.650378, -15.073145, -12.464962, 0.043694, 0.142023, 1.434615, 2.627590, 93.549835, -13.493301, 55.573242
1649447397.683713, 1.804630, -24.011299, 11.720964, 0.075124, 0.457392, 2.205686, 89.661469, -13.760544, 56.367798
1649447397.716699, -7.421876, -15.882236, 0.204255, 0.026100, 0.977932, 1.466699, 87.881363, -13.708832, 56.382965
1649447397.750589, 4.390068, -8.410980, 10.665121, 0.107299, -0.208522, 1.383334, 86.118225, -13.443069, 56.383423
1649447397.783724, 6.038177, -6.667852, 3.766528, -0.301570, 0.282913, 1.604454, 85.196960, -14.081955, 56.431030
1649447397.817247, 3.739294, -10.729615, 2.797924, -0.411035, 0.289101, 1.853317, 83.895172, -14.472366, 56.497177
1649447397.850561, 2.239626, -8.347833, 2.590676, -0.448916, 0.097561, 1.919675, 82.304474, -14.651154, 56.279099
1649447397.883728, 1.207276, -8.663868, 1.314267, -0.445044, -0.016762, 1.970492, 80.835419, -15.250473, 55.699509
1649447397.917116, -0.466869, -8.415768, 1.560271, -0.391657, 0.005045, 1.821769, 79.617676, -15.424316, 55.530106
1649447397.950385, -0.332944, -9.182362, 1.679832, -0.346174, -0.054387, 1.743157, 78.328247, -15.317444, 55.380295
1649447397.983746, -0.466570, -9.147197, 2.539649, -0.423477, -0.077493, 1.658050, 76.835587, -15.339478, 55.018982
1649447398.017245, -0.698059, -9.759813, 1.988684, -0.244551, 0.297079, 1.451266, 75.638229, -15.524994, 54.873611
1649447398.050570, 1.435773, -9.389460, 1.254861, -0.317919, -0.016378, 1.650724, 74.471436, -15.270050, 54.411896
1649447398.083779, 1.273865, -9.884761, 1.592443, -0.332215, -0.120458, 1.981079, 73.284851, -14.692520, 54.351501
1649447398.117044, 0.427964, -10.139294, 2.250250, -0.336317, -0.027335, 2.101028, 71.514847, -14.588745, 54.343124
1649447398.150576, -0.133926, -10.862044, 1.519420, -0.243280, -0.115346, 2.104003, 69.891907, -13.964737, 54.214066
1649447398.183896, 0.864008, -13.352463, 1.806874, -0.157935, -0.293047, 2.002357, 68.622131, -13.208649, 54.198547
1649447398.216569, -1.692401, -15.667506, 3.640533, -0.068999, -0.844806, 0.601938, 67.922745, -13.398300, 53.917755
1649447398.250559, 8.141333, -11.213992, 2.471415, -0.183301, -1.294585, -1.999406, 70.139236, -15.636200, 54.698990
1649447398.283761, 2.808249, -11.773936, 0.659902, -0.073664, -1.320071, -3.595671, 73.628632, -18.261765, 55.127533
1649447398.317037, 4.741866, -11.232247, 0.526724, 0.002773, -0.820589, -4.048335, 78.980408, -22.013245, 54.896408
1649447398.350567, 2.344372, -9.444527, 1.129016, -0.115803, -0.399091, -4.376441, 83.527252, -24.566788, 54.617889
1649447398.383772, 2.929306, -8.372224, 0.815974, -0.019791, 0.032110, -4.468465, 88.392639, -26.777100, 54.445999
1649447398.417227, 3.352032, -7.438485, 1.328632, -0.028131, -0.062199, -4.083826, 93.793549, -28.202652, 54.351334
1649447398.450026, 3.769222, -7.061249, 1.619528, -0.001008, -0.222844, -3.502219, 101.826691, -29.987823, 53.728577
1649447398.483899, 3.968240, -7.078308, 2.007538, 0.023688, -0.322217, -2.768232, 107.477783, -29.555649, 53.158615
1649447398.517046, 1.936760, -8.453178, 1.111658, -0.082168, 0.300352, -1.881801, 112.297821, -28.406616, 52.776367
1649447398.550459, 1.000028, -9.858275, 1.325640, 0.097605, 1.237956, -1.237936, 117.486847, -27.578308, 53.611420
1649447398.583898, -0.738162, -11.354501, 2.775329, 0.006126, 0.710581, -0.369681, 119.391235, -26.226517, 53.244247
1649447398.617210, -7.272088, -10.360908, -0.702997, -0.006788, 0.683537, 1.222039, 120.256058, -25.709015, 53.653107
1649447398.650559, -22.180632, -13.459454, -4.326771, -0.203013, 2.346875, 3.434158, 117.469498, -28.121689, 55.438416
1649447398.683705, 12.022035, -25.447670, 9.025691, -0.255029, 0.609838, 2.374810, 113.960114, -30.038818, 56.227280
1649447398.716639, -9.726444, -31.727511, -2.996343, -0.025415, 0.230765, 0.958541, 111.513596, -30.472702, 56.577728
1649447398.750362, 14.684836, -4.573374, 8.104522, -0.177826, 0.078856, 1.582862, 109.577820, -30.516068, 56.857208
1649447398.783894, 4.464139, -7.982268, 2.434005, -0.436018, -0.081911, 1.901754, 108.004517, -32.466888, 56.150772
1649447398.817186, 3.207482, -8.636783, 3.227833, -0.501272, -0.240742, 2.070973, 105.222061, -33.174469, 55.346756
1649447398.850369, -0.063596, -7.766790, 1.648707, -0.467352, -0.361320, 1.933761, 103.325745, -33.789658, 54.419250
1649447398.883891, -1.815403, -8.432977, 1.416170, -0.363643, 0.047068, 1.753449, 101.193954, -35.129776, 53.544571
1649447398.917069, -1.254861, -9.220370, 1.571943, -0.288969, 0.175816, 1.497621, 99.308990, -35.613205, 52.906616
1649447398.950368, -1.882740, -9.214085, 2.461389, -0.329071, 0.122479, 1.273688, 97.448822, -35.660629, 52.498062
1649447398.983886, -1.092055, -9.977686, 1.994819, -0.382002, 0.017904, 1.122622, 96.108841, -36.327560, 51.778839
1649447399.017030, -0.858621, -9.223063, 1.595885, -0.285809, 0.163018, 1.123302, 94.469620, -36.474792, 51.053879
1649447399.050439, 2.004845, -9.665242, 1.860594, -0.286611, 0.084769, 1.524981, 92.478165, -36.131989, 50.591537
1649447399.083869, 2.109142, -10.238055, 2.148946, -0.301742, 0.055372, 1.824944, 90.460541, -36.651260, 50.009674
1649447399.117027, 1.422904, -10.217256, 1.624017, -0.325774, -0.018323, 2.087031, 87.786224, -36.370224, 49.218796
1649447399.150545, 1.727716, -11.712135, 1.732055, -0.191334, -0.215087, 2.247275, 85.205429, -35.458862, 48.302963
1649447399.183880, -1.910872, -12.685079, 1.082628, -0.141056, -0.319684, 2.015261, 83.430511, -34.062286, 47.876419
1649447399.217023, -4.129998, -12.550704, 2.994398, -0.280081, -1.154968, 1.203866, 82.305740, -33.333160, 46.866180
1649447399.250533, 7.109582, -11.677270, 1.938854, -0.298780, -1.298484, -2.352677, 84.580551, -32.527435, 46.055099
1649447399.283688, 0.852485, -12.366650, 1.497274, -0.196785, -1.222942, -3.408148, 88.913391, -31.187576, 45.002258
1649447399.317212, 4.542399, -11.524041, 0.533608, 0.069050, 0.020406, -4.127293, 95.506653, -29.240479, 43.950897
1649447399.350505, 2.356792, -9.523087, 1.554136, 0.039282, 0.647404, -4.482790, 99.200333, -26.735764, 43.370514
1649447399.383691, 3.149872, -7.634660, 1.275062, 0.070820, 0.393389, -4.549475, 102.779022, -24.151886, 42.365540
1649447399.417015, 3.434782, -7.054964, 1.223437, 0.114277, -0.011932, -4.216725, 106.736099, -19.696259, 40.793945
1649447399.450355, 3.873369, -7.217022, 1.003021, 0.119521, -0.220598, -3.755820, 108.646713, -17.344971, 39.223557
1649447399.483686, 2.623297, -7.826645, 0.782006, 0.096895, 0.151734, -3.034374, 108.915482, -15.152084, 37.571335
1649447399.517057, 2.817826, -9.070732, 1.439214, 0.052786, 0.518816, -2.436379, 108.701035, -13.643326, 36.666916
1649447399.550347, 1.642572, -9.589077, 0.624138, 0.077349, 0.509260, -1.710978, 108.105179, -13.406693, 34.843353
1649447399.583864, 0.044891, -9.507824, -0.156222, 0.216574, -0.077071, -0.131811, 107.061630, -14.615982, 34.460678
1649447399.617012, -6.874651, -10.424204, -3.337367, 0.201968, 0.502878, 1.369020, 105.440399, -16.601151, 33.613739
1649447399.650542, -23.441778, -18.050934, -1.577629, -0.098982, 2.581821, 3.273598, 100.649948, -19.143631, 33.377075
1649447399.683871, 3.347244, -14.551958, 9.336040, 0.199291, -0.351334, 1.729388, 98.599808, -20.571594, 33.409637
1649447399.717209, 5.794267, -13.838037, -1.004966, -0.154371, 0.794412, 1.343693, 97.217209, -21.339005, 33.295670
1649447399.750514, 2.505981, -11.065102, 3.712808, -0.126810, 0.550516, 1.318712, 95.089554, -22.006577, 33.186096
1649447399.783689, 6.745663, -9.112481, 4.036325, -0.175792, 0.091958, 1.554092, 94.138733, -22.745392, 33.663437
1649447399.817009, 2.853888, -9.176975, 2.401983, -0.260517, 0.172169, 1.677143, 92.248322, -23.679367, 34.049271
1649447399.850357, 2.422184, -8.095843, 1.927931, -0.277858, -0.057940, 1.768598, 89.705719, -23.785522, 33.528915
1649447399.883677, 1.651101, -8.352771, 1.500117, -0.241280, 0.053589, 1.729364, 88.009399, -24.461838, 33.623734
1649447399.917065, -0.082151, -8.364443, 3.597587, -0.257216, -0.137063, 1.658117, 86.163025, -24.880249, 33.716690
1649447399.950397, -1.895759, -9.035119, 1.562665, -0.229139, -0.057220, 1.380175, 84.345749, -25.222916, 33.760437
1649447399.983677, -2.141164, -9.405920, 2.066795, -0.196287, 0.082356, 1.250534, 82.681763, -25.145325, 33.134415
1649447400.016996, -0.269348, -9.028684, 2.517353, -0.255062, -0.001956, 1.263214, 81.494888, -25.457703, 33.099579
1649447400.050385, 0.048931, -9.243414, 2.435352, -0.406133, 0.019884, 1.439738, 79.750443, -25.575836, 32.994293
1649447400.083665, 1.349731, -10.167875, 2.431461, -0.552863, 0.098637, 1.781511, 77.231613, -24.896317, 32.034607
1649447400.116996, 2.858677, -10.451289, 0.726640, -0.580520, -0.499395, 2.200031, 74.889908, -24.934418, 31.469330
1649447400.150340, 4.127155, -10.797849, 2.544288, -0.236333, -0.271464, 2.381980, 72.397400, -24.582535, 31.821411
1649447400.183637, 0.975338, -10.447697, 3.106028, -0.317839, -0.603402, 2.506497, 68.944778, -23.688766, 31.617508
1649447400.216616, -3.568707, -15.119234, 2.183362, -0.232326, -0.356285, 1.800565, 66.752243, -23.663193, 32.509018
1649447400.250318, -6.452523, -13.833996, 1.796848, -0.268807, -0.612087, -0.302895, 66.515778, -24.004471, 33.595428
1649447400.283651, 9.004144, -11.312902, 0.448015, -0.478856, 0.526526, -3.192442, 69.103958, -26.266846, 33.899811
1649447400.316980, 2.593818, -12.938415, 1.992425, -0.203138, 0.497976, -4.006513, 76.072922, -29.737839, 34.060776
1649447400.349619, 7.542633, -10.447548, 3.613748, 0.138101, -0.502283, -4.548098, 82.975769, -31.866837, 35.813797
1649447400.383648, 3.242647, -8.637980, 2.603245, 0.453620, -0.772474, -4.664001, 90.079773, -32.221878, 37.311569
1649447400.416976, 4.523694, -7.644836, 2.272397, 0.617700, -0.893494, -4.484300, 99.051926, -29.845413, 39.111862
1649447400.450333, 3.663727, -6.298097, 1.486650, 0.505773, -0.900605, -4.003989, 104.610748, -27.252533, 41.237656
1649447400.483644, 3.154810, -6.307225, 0.982969, 0.432350, -0.711528, -3.437285, 108.789368, -24.222137, 42.608749
1649447400.516974, 3.352481, -7.569717, 1.204882, 0.324752, -0.452771, -2.723494, 112.022797, -20.295380, 44.292343
1649447400.550311, 1.281496, -9.537153, 1.171064, 0.047521, -0.236119, -1.774525, 113.292725, -18.194839, 45.921555
1649447400.583655, -1.501015, -9.643844, 0.405368, 0.110338, 0.678409, -0.891071, 113.199097, -16.969208, 47.725891
1649447400.617014, -2.799420, -9.221417, 0.267253, 0.203982, 0.698808, 0.509059, 111.891266, -16.978546, 49.216782
1649447400.650292, -15.314960, -14.759954, -0.626084, 0.098742, 1.208079, 2.941217, 107.585815, -18.690979, 51.617462
1649447400.683646, -0.951246, -28.016499, 13.111396, 0.025026, 0.966437, 2.164644, 103.252625, -20.286438, 54.035645
1649447400.716967, -9.775226, -15.092449, 4.107552, 0.223310, 0.281641, 1.654229, 101.353333, -21.208969, 54.422394
1649447400.750301, 10.908731, -14.196718, 1.616535, -0.062915, 0.425151, 1.507101, 98.268066, -21.995331, 55.015884
1649447400.783637, 2.538303, -11.292551, 6.455217, -0.059860, 0.084229, 1.599610, 96.256577, -22.858673, 55.130157
1649447400.816976, 4.753089, -7.337330, 3.312079, -0.205484, 0.000487, 1.696413, 94.914474, -23.349579, 54.514389
1649447400.850299, 3.270928, -9.244910, 2.210896, -0.277268, 0.062434, 1.902244, 91.718582, -24.254196, 54.093292
1649447400.883438, 2.284368, -8.039280, 1.918204, -0.290288, -0.088485, 1.954029, 89.774277, -24.799774, 53.955505
1649447400.916966, -0.499939, -8.691251, 2.094627, -0.270440, 0.059380, 1.898888, 87.451889, -25.181015, 53.728836
1649447400.949420, -0.197222, -8.481759, 2.321927, -0.246576, -0.122363, 1.802718, 85.289612, -25.571075, 52.943283
1649447400.983672, -3.107823, -9.039608, 2.300529, -0.221732, -0.073407, 1.449057, 82.751877, -25.273163, 52.973343
1649447401.016985, -3.050811, -8.931869, 2.262221, -0.236960, 0.083363, 1.237391, 81.271011, -25.056686, 52.487427
1649447401.050363, -1.212214, -9.442282, 2.243217, -0.289533, 0.163025, 1.169458, 79.760849, -25.386734, 52.405075
1649447401.083654, 0.384269, -9.716419, 2.248455, -0.380442, -0.030205, 1.338888, 77.496613, -24.789215, 52.200104
1649447401.116975, 1.571644, -10.147674, 1.185878, -0.342045, -0.084106, 1.608393, 75.798019, -24.577240, 51.702057
1649447401.150297, 3.262698, -10.475979, 2.227954, -0.066996, 0.015855, 1.816405, 73.700302, -24.263275, 51.298080
1649447401.182875, 1.568352, -10.274118, 1.730709, -0.246815, -0.383130, 2.093271, 70.288513, -22.962524, 51.261276
1649447401.216972, -2.212691, -11.757475, 2.153135, -0.059453, -0.110016, 1.881778, 68.155945, -21.988235, 51.639679
1649447401.250306, -5.461324, -13.424438, 3.090166, -0.252986, -0.745026, 1.401874, 66.204254, -21.446655, 51.454834
1649447401.283227, -4.520851, -14.213777, 1.521814, -0.204369, -0.554397, -0.258033, 65.520309, -21.489334, 50.849533
1649447401.316179, 7.672070, -11.374254, 0.946907, -0.347843, 0.339325, -3.209207, 66.991653, -23.899460, 50.019135
1649447401.350327, 3.339911, -11.520449, 1.461062, -0.070404, 0.586303, -3.841083, 69.787064, -27.258148, 48.225220
1649447401.383638, 6.607099, -10.569203, 2.423231, 0.060731, 0.196927, -4.269099, 73.565475, -30.447144, 47.236328
1649447401.416952, 4.167258, -8.152556, 1.591546, 0.318618, -0.024518, -4.470459, 79.642487, -33.949142, 47.185989
1649447401.449764, 4.479102, -7.018901, 1.495927, 0.404598, -0.461362, -4.248800, 85.297104, -36.390442, 46.868729
1649447401.483624, 4.318541, -6.290017, 0.941969, 0.366152, -0.736429, -3.782161, 90.684067, -37.941315, 46.841293
1649447401.516064, 3.966294, -6.824373, 0.693421, 0.250380, -0.784148, -2.936112, 97.642151, -39.796844, 47.014572
1649447401.550105, 1.644817, -8.372374, 0.325163, 0.052654, -0.246318, -2.296005, 102.540146, -40.876617, 46.538574
1649447401.583677, 1.419462, -9.728988, 0.914136, -0.193891, 0.534653, -1.663472, 106.075089, -41.966217, 45.795166
1649447401.616951, -0.735469, -8.902540, -0.845004, -0.240621, 0.685299, -0.413851, 108.865952, -43.877457, 45.215347
1649447401.650292, 1.322946, -10.620080, -0.679953, -0.043404, 0.673217, 0.779461, 109.224869, -45.722534, 45.724304
1649447401.682768, -19.666421, -14.671518, -2.140117, -0.478942, 1.982034, 2.752998, 106.410919, -48.273605, 45.278030
1649447401.717049, -11.602601, -21.470003, 18.017714, -0.019739, 2.063589, 2.410259, 99.373337, -51.188049, 45.715912
1649447401.750283, -9.815329, -13.693636, -1.502062, -0.145085, 0.346928, 1.493325, 96.302261, -52.152451, 46.209045
1649447401.783611, 3.700987, -12.245444, 2.889203, -0.016281, 0.640459, 1.185155, 93.729218, -52.564789, 45.718872
1649447401.816941, 5.686678, -8.672547, 5.210082, -0.344047, -0.022214, 1.499269, 91.536179, -53.046371, 45.033951
1649447401.850348, 3.356671, -10.165631, 1.928081, -0.468272, -0.165605, 1.721482, 87.571823, -53.263153, 44.411728
1649447401.883650, 0.692224, -8.130260, 0.986112, -0.394139, -0.098514, 1.745119, 84.881500, -53.442352, 43.380585
1649447401.916942, 0.543334, -8.724022, 1.542016, -0.363999, -0.147486, 1.683976, 82.045456, -53.679092, 42.379196
1649447401.950271, -1.298256, -8.777143, 2.725350, -0.418655, -0.343922, 1.463700, 78.663025, -53.942703, 41.427597
1649447401.983644, -3.088371, -9.202713, 1.510143, -0.395302, -0.041012, 1.193318, 76.384567, -53.800888, 41.134659
1649447402.016938, -2.537704, -9.310901, 0.939575, -0.327939, 0.244468, 0.956473, 74.566055, -53.774246, 40.147217
1649447402.050266, -0.596156, -9.198074, 2.417395, -0.461195, 0.573477, 0.945856, 71.907593, -53.539688, 38.541458
1649447402.083617, -0.132729, -9.807997, 1.668160, -0.594798, 0.582160, 1.087184, 70.018692, -53.293732, 37.495590
1649447402.117019, 2.236035, -10.298958, 0.439037, -0.587394, 0.320115, 1.422089, 67.660172, -52.949707, 36.165207
1649447402.150276, 2.692729, -10.728118, 1.191864, -0.541231, -0.123902, 1.677678, 64.884201, -52.417374, 34.686935
1649447402.183638, 1.479168, -11.096526, 1.519271, -0.528515, -0.110865, 1.885841, 61.172714, -51.404282, 33.668182
1649447402.216933, 2.779219, -12.610709, 0.622193, -0.397108, -0.183954, 2.131989, 58.138306, -50.302490, 32.875626
1649447402.250187, -0.528071, -13.566744, 1.911920, -0.463625, -0.943755, 1.794108, 55.858810, -49.148727, 32.056229
1649447402.283797, 2.483685, -13.616124, 3.705326, -0.309590, -1.010234, -0.371882, 56.544815, -49.070328, 32.498337
1649447402.317138, 2.636764, -9.685593, 2.458845, -0.064139, -0.813861, -2.263278, 62.017715, -51.269440, 32.808960
1649447402.350472, 2.916886, -9.713875, 1.238700, 0.075526, -0.521566, -3.225497, 69.775696, -53.360229, 32.131760
1649447402.383623, 3.181744, -9.214235, 1.357363, 0.328305, -0.025348, -3.930538, 82.933136, -54.599854, 31.895081
1649447402.417134, 3.285443, -8.591593, 1.561169, 0.461917, 0.048051, -4.220870, 93.606125, -52.710251, 31.962234
1649447402.450265, 3.136703, -8.138041, 1.354520, 0.673274, 0.013346, -4.214723, 103.284378, -48.763336, 31.525436
1649447402.483654, 3.663877, -7.994539, 1.292270, 0.639364, -0.341365, -3.766137, 110.851273, -43.138000, 30.919449
1649447402.516921, 3.708918, -7.616255, 0.571167, 0.594434, -0.405996, -3.313011, 116.635300, -34.615082, 29.512772
1649447402.550296, 3.371634, -8.176947, 0.601094, 0.555943, -0.233954, -2.749905, 118.169769, -29.584900, 27.769302
1649447402.583587, 2.402881, -9.323620, 0.970998, 0.371583, 0.091743, -2.001906, 118.109818, -26.817871, 26.602234
1649447402.616939, 2.467374, -10.414328, 0.593463, 0.394812, -0.176168, -1.289692, 117.500687, -26.142349, 26.599197
1649447402.650261, -1.314716, -10.084078, -0.734272, 0.501171, 0.366561, -0.533468, 117.106857, -26.748306, 27.602356
1649447402.683464, -3.781043, -9.665841, -1.585560, 0.286833, 0.730006, 0.276855, 117.027939, -28.448196, 28.676270
1649447402.716927, -6.975058, -11.330709, -2.870049, 0.252078, 0.709065, 2.048543, 115.083603, -31.219910, 30.189667
1649447402.749974, -13.732991, -20.075979, 8.794801, 0.356845, 3.682648, 2.000643, 111.754761, -33.313522, 32.230927
1649447402.783606, 2.466926, -11.459697, 7.455843, 0.133817, 0.470804, 1.336262, 109.876495, -34.842468, 32.425217
1649447402.816956, 9.009830, -12.656648, 1.830218, -0.172433, 0.510826, 1.189132, 107.786713, -36.477493, 32.783463
1649447402.850461, 1.847276, -14.770429, 1.402104, -0.341367, 1.151626, 1.078580, 106.152084, -36.814896, 33.560944
1649447402.883658, 4.697573, -10.328736, 5.451896, -0.300763, -0.025332, 1.354094, 104.334656, -37.369812, 33.631882
1649447402.916453, 4.086453, -8.939799, 2.563741, -0.327246, 0.140302, 1.625800, 102.597565, -38.171524, 33.211090
1649447402.949780, 3.006369, -8.528446, 2.663849, -0.362513, -0.023233, 1.709152, 99.790222, -38.708923, 34.094070
1649447402.983112, 1.825878, -8.533833, 3.015647, -0.423136, -0.084511, 1.804654, 97.135300, -39.028076, 34.032242
1649447403.016441, 0.386664, -8.598027, 2.409764, -0.425762, -0.146420, 1.752954, 94.820831, -39.614578, 33.699509
1649447403.049774, -0.950199, -8.977059, 1.673697, -0.334517, -0.050658, 1.571359, 91.904388, -40.048157, 33.678787
1649447403.083129, -0.887650, -8.998757, 2.386421, -0.290100, -0.104564, 1.504637, 89.632080, -39.801880, 33.981796
1649447403.116442, -2.350657, -8.797644, 2.371307, -0.353595, -0.008183, 1.357702, 87.770874, -39.844559, 33.583298
1649447403.149789, -0.778864, -9.497499, 2.335244, -0.484013, 0.246203, 1.362186, 85.973618, -40.296524, 32.867889
1649447403.183121, 0.564882, -9.460538, 1.470638, -0.453972, 0.193073, 1.518777, 83.222198, -39.682999, 32.869553
1649447403.216982, 1.765125, -10.120290, 1.647510, -0.274890, 0.034615, 1.668404, 80.981125, -39.292297, 32.651184
1649447403.249769, 1.820940, -10.252869, 2.367716, -0.345024, -0.243815, 1.997246, 78.546417, -39.008881, 32.481934
1649447403.283121, 1.945289, -11.588684, 1.928529, -0.360955, -0.381115, 2.100677, 74.609436, -37.314560, 33.166565
1649447403.316465, -1.578826, -13.425935, 1.733851, -0.209915, -0.353948, 1.838724, 71.828598, -35.968506, 33.999542
1649447403.349770, -4.780921, -12.727576, 1.716493, -0.163002, -0.914739, 0.505613, 69.822281, -34.888138, 34.473358
1649447403.382966, 8.387786, -12.385504, 2.786402, -0.394706, -0.809888, -2.409371, 71.594986, -35.433060, 36.425140
1649447403.416467, 2.359935, -12.884097, 1.459266, -0.175121, -0.576019, -3.577356, 75.976089, -36.911987, 37.745255
1649447403.449751, 5.380519, -10.361207, 1.074847, 0.039426, -0.150199, -4.180039, 81.370377, -38.616898, 39.351288
1649447403.483090, 2.679561, -9.330503, 1.380407, -0.029650, -0.184945, -4.349233, 89.921188, -40.318161, 41.198868
1649447403.516433, 2.683152, -8.560468, 0.707038, 0.058183, -0.096105, -4.275928, 97.061111, -40.217590, 42.895554
1649447403.549812, 2.647688, -7.581389, 0.630124, 0.052592, -0.170855, -4.001144, 104.069321, -38.858765, 44.065323
1649447403.583118, 2.308908, -7.742998, 0.538097, 0.040504, -0.175018, -3.500314, 110.514893, -36.732056, 44.690125
1649447403.616434, 2.172738, -7.921067, 0.528520, 0.027233, 0.002838, -3.031928, 116.815918, -31.912338, 46.521942
1649447403.649760, 2.520645, -8.111256, 0.349105, -0.068546, -0.092744, -2.402942, 120.160004, -28.770767, 47.907959
1649447403.683094, 2.158223, -7.698256, 0.300323, -0.069283, 0.028286, -1.222026, 121.822723, -26.088501, 48.555420
1649447403.716426, -0.105495, -7.324611, -0.396839, -0.033848, 0.830945, -0.159990, 122.073380, -24.248306, 51.082336
1649447403.749777, 0.516399, -9.068188, 1.422156, -0.134106, 0.498606, 1.170898, 120.397461, -24.282990, 52.889191
1649447403.783090, -16.724696, -14.657751, 0.911293, -0.015897, 1.992831, 3.537811, 116.681290, -25.910767, 55.167038
1649447403.816426, 8.702324, -25.201367, 7.659201, -0.077869, -0.598014, 2.742084, 110.953690, -28.488251, 57.694748
1649447403.849790, -8.791209, -20.187160, -4.671387, 0.027165, 0.859265, 1.704742, 108.216553, -29.355469, 58.547714
1649447403.883088, 7.591415, -7.997531, 9.142109, 0.138358, -0.741684, 1.856110, 106.008240, -30.064194, 59.385086
1649447403.916426, 1.765574, -7.106290, 3.119046, -0.109378, 0.103162, 1.715248, 104.417648, -31.007370, 58.644363
1649447403.949770, 3.828328, -9.793632, 2.378490, -0.235444, -0.197917, 1.945053, 101.243851, -31.878387, 59.228058
1649447403.983095, 1.082179, -8.369530, 2.382530, -0.280172, -0.216751, 1.955845, 99.115570, -32.706833, 59.087051
1649447404.016889, -0.103549, -8.769512, 1.629404, -0.342114, -0.240578, 1.861815, 97.022614, -33.505127, 58.598145
1649447404.049756, -1.335067, -8.700379, 1.791162, -0.311628, -0.102627, 1.743547, 94.296402, -33.917801, 58.549301
1649447404.083099, -1.923442, -9.062353, 1.683273, -0.294732, 0.108140, 1.498729, 92.313019, -34.198135, 58.786438
1649447404.116416, -2.213888, -9.322572, 1.741183, -0.296201, 0.087990, 1.303765, 90.462372, -34.413742, 57.805328
1649447404.149762, -1.717391, -9.438242, 1.130662, -0.224271, 0.114297, 1.207982, 88.247849, -34.549820, 58.065826
1649447404.183095, 0.413598, -10.161740, 1.181090, -0.172357, -0.161780, 1.303705, 86.789703, -34.889496, 58.335251
1649447404.216447, 1.379359, -10.157999, 2.276138, -0.158427, 0.145980, 1.653074, 84.693756, -34.372467, 58.229263
1649447404.250204, 1.006313, -9.890297, 2.004545, -0.202616, -0.123858, 1.858121, 81.781860, -34.133179, 57.989609
1649447404.283083, -1.164330, -9.741109, 0.293739, -0.080826, -0.040636, 1.927490, 79.828522, -33.581146, 59.086777
1649447404.316420, -0.008529, -15.039477, 2.448520, 0.096989, 0.013576, 1.671081, 77.779190, -32.807846, 58.961243
1649447404.349745, 0.115071, -13.434165, 2.528427, -0.161582, -0.496503, 1.467626, 76.315338, -32.064713, 58.872131
1649447404.382915, -0.534954, -15.838392, 3.788076, -0.167568, -0.206561, -0.597086, 77.011414, -31.443741, 59.471573
1649447404.416446, 6.772897, -12.378172, 2.224064, -0.118977, 0.127175, -3.043040, 81.154922, -31.817459, 59.232193
1649447404.449704, 7.037307, -10.449044, 1.662923, 0.123305, -0.139378, -4.057282, 85.961243, -31.919189, 58.403503
1649447404.483074, 5.121796, -9.730185, 2.036717, 0.133293, -0.608483, -4.371459, 93.361679, -29.907669, 58.590775
1649447404.516245, 4.068796, -8.049007, 0.894683, 0.284050, -0.624921, -4.513698, 98.942947, -27.546249, 58.804138
1649447404.549746, 3.535637, -7.551462, 1.142184, 0.315686, -0.832364, -4.264203, 103.474258, -24.673874, 58.243805
1649447404.583070, 3.143288, -6.961890, 1.211167, 0.259517, -0.823282, -3.820785, 107.524536, -20.922394, 57.130676
1649447404.616417, 3.569306, -7.879767, 1.358111, 0.159030, -0.577516, -3.264382, 109.012848, -18.695786, 56.442429
1649447404.649735, 2.899977, -10.018986, 1.638382, -0.010798, 0.133854, -2.445266, 109.592773, -17.883423, 55.428055
1649447404.683080, 1.362750, -11.385925, 0.977882, -0.036186, 0.489492, -1.673252, 109.805481, -18.042999, 54.379852
1649447404.716410, -1.602170, -11.249605, 1.038186, -0.206311, 0.827822, -0.808623, 109.087357, -19.494171, 54.157700
1649447404.749733, -3.931429, -10.799944, -0.494253, -0.155569, 0.810710, 0.314158, 108.398926, -21.376755, 53.858627
1649447404.783076, -10.453533, -11.310059, -1.820641, 0.343706, 0.777201, 1.852984, 106.841263, -23.290466, 53.978241
1649447404.816419, -21.969344, -18.683153, 6.193500, 0.649840, 2.120564, 2.588282, 101.577850, -25.775101, 56.070099
1649447404.849726, -2.848501, -13.617920, 4.594922, 0.134418, 0.177032, 1.165476, 99.646164, -26.487885, 56.359665
1649447404.883072, 5.941361, -14.751125, 1.264587, -0.208108, 0.786234, 1.004743, 97.900284, -27.293304, 55.691223
1649447404.916394, 4.753837, -10.848128, 4.324676, -0.322916, 0.717364, 1.208634, 95.514618, -28.364487, 55.686356
1649447404.949804, 6.327426, -10.266786, 3.879953, -0.479417, 0.133007, 1.463458, 93.985077, -29.134888, 55.299133
1649447404.983062, 4.191349, -8.951172, 1.690755, -0.446578, 0.142101, 1.749040, 92.249069, -30.032516, 53.892838
1649447405.016422, 2.660856, -8.008904, 1.413327, -0.426233, 0.034145, 1.850243, 90.199646, -31.038406, 53.058777
1649447405.049736, 1.204433, -8.495525, 2.169446, -0.438838, -0.037446, 1.846593, 87.240616, -31.851395, 52.754395
1649447405.083059, -1.253963, -8.817545, 2.322226, -0.496100, 0.171164, 1.663933, 85.137741, -32.205521, 51.809998
1649447405.116406, -1.607407, -9.260323, 1.447295, -0.485044, 0.449767, 1.471895, 83.017822, -32.738983, 51.093857
1649447405.149722, -0.890942, -9.394548, 1.130961, -0.455068, 0.460622, 1.345721, 80.251083, -32.773666, 50.191162
1649447405.183082, 0.217872, -9.502736, 1.849970, -0.450166, 0.409543, 1.382504, 78.152298, -33.025101, 49.576111
1649447405.216449, 1.415123, -11.009138, 1.801637, -0.460792, -0.075416, 1.456341, 76.288177, -33.048370, 48.645523
1649447405.249721, 1.094898, -9.263316, 2.507477, -0.428208, 0.298942, 1.744241, 73.286072, -32.734482, 47.868149
1649447405.283044, 3.597737, -10.552593, 2.072780, -0.756755, -0.394101, 2.229246, 70.646179, -32.258362, 46.903107
1649447405.316393, 1.117793, -11.667244, 1.267281, -0.520582, -0.211803, 2.261404, 68.332962, -32.114395, 45.692520
1649447405.349804, 0.096367, -13.224672, 1.529446, -0.179268, -0.272100, 2.134648, 64.989410, -30.799301, 45.068024
1649447405.383054, -4.531476, -12.802395, 2.067094, -0.232157, -0.477838, 1.413350, 63.741440, -30.383301, 45.399521
1649447405.416399, 6.466589, -13.733590, 3.762189, -0.346105, -1.335533, -1.764429, 65.354233, -31.415131, 45.057205
1649447405.449742, 1.648707, -12.761095, 2.105850, -0.031819, -1.205640, -2.894408, 69.930954, -33.582947, 44.909836
1649447405.483052, 5.003283, -9.293543, 0.454449, 0.326533, -0.633378, -3.604947, 77.081619, -35.769470, 46.525436
1649447405.516409, 2.244714, -8.331523, 1.014244, 0.272236, -0.382840, -4.095299, 83.435379, -36.825165, 46.135788
1649447405.549737, 2.044798, -7.511957, 0.880917, 0.402555, 0.026651, -4.358685, 89.861252, -36.946671, 46.188934
1649447405.583082, 3.002179, -7.372794, 1.290624, 0.517854, 0.105858, -4.273715, 97.655151, -35.257660, 48.006760
1649447405.616390, 4.197634, -6.970718, 2.079065, 0.561094, -0.207500, -3.796214, 102.996567, -33.410812, 48.780807
1649447405.649719, 3.820547, -7.041646, 2.081459, 0.527298, -0.290250, -3.241918, 107.544769, -31.142654, 49.007614
1649447405.683517, 3.438522, -7.961768, 2.082058, 0.511223, -0.030255, -2.675121, 111.439682, -27.891098, 50.555237
1649447405.716383, 4.169203, -9.996091, 1.419163, 0.454685, -0.163196, -1.715763, 113.341232, -25.745178, 51.788635
1649447405.749709, -0.219069, -9.833585, 0.709731, 0.248554, -0.040106, -0.863474, 114.647476, -24.822220, 52.129852
1649447405.783513, -2.227954, -8.725369, -0.102502, 0.374462, 0.837916, 0.097051, 114.245590, -24.099655, 53.388794
1649447405.816384, -0.691475, -10.248679, -0.631022, 0.268121, 0.499005, 1.246298, 111.813400, -24.541016, 55.830688
1649447405.849774, -23.043742, -17.395521, -0.454300, 0.093380, 2.790541, 2.956807, 107.628372, -25.914185, 57.360947
1649447405.883049, 10.481516, -19.864691, 5.391593, -0.053505, 0.089444, 1.841201, 103.865921, -26.976898, 57.767456
1649447405.916371, 0.579397, -11.960534, 0.736816, -0.199045, 0.902076, 1.625509, 100.578278, -27.613876, 58.881302
1649447405.950177, -1.364545, -17.288231, 3.246687, -0.238611, 0.876546, 1.120659, 98.605179, -28.233002, 58.805237
1649447405.983044, 8.804377, -9.189395, 4.534019, -0.463481, 0.017161, 1.369069, 96.902710, -29.123322, 58.155975
1649447406.016371, 3.914220, -9.599552, 2.340781, -0.487341, 0.158850, 1.684330, 94.202362, -29.961227, 58.111038
1649447406.049692, 2.622399, -7.847744, 2.778022, -0.493800, 0.017398, 1.829057, 92.016998, -30.459579, 57.691513
1649447406.083035, 1.220893, -8.634838, 2.823362, -0.578544, -0.154244, 1.823693, 90.064911, -31.285233, 56.821136
1649447406.116415, -0.405817, -8.716839, 1.926285, -0.539387, -0.100891, 1.715049, 88.064209, -31.955078, 55.755112
1649447406.149699, -1.098490, -8.989479, 1.829469, -0.483475, -0.075902, 1.520343, 85.385681, -32.106796, 56.132736
1649447406.183053, -1.752705, -9.376741, 1.998709, -0.501215, -0.010986, 1.361864, 83.797455, -32.225296, 55.067749
1649447406.216383, -1.650652, -9.156774, 1.997063, -0.547437, 0.369892, 1.221768, 82.359818, -32.672531, 53.850342
1649447406.249684, 0.028132, -9.733178, 1.311723, -0.502220, 0.233031, 1.254737, 79.675705, -32.336136, 53.919937
1649447406.283037, 0.454449, -9.422381, 2.399289, -0.481552, 0.217275, 1.391257, 77.978485, -32.311951, 52.832840
1649447406.316403, 2.825757, -11.244667, 3.176357, -0.475265, 0.387359, 1.649282, 75.850021, -32.104065, 52.161911
1649447406.349694, 4.419696, -10.521918, 2.440889, -0.647809, -0.016574, 2.195247, 72.642700, -31.377426, 51.670120
1649447406.383035, 2.654272, -11.594819, -0.008230, -0.426598, -0.295421, 2.592989, 70.173050, -30.488800, 51.508865
1649447406.416421, -1.577330, -13.201478, 0.804302, -0.093801, -0.146101, 2.380689, 67.872116, -29.454361, 51.127640
1649447406.449677, -4.419696, -12.874071, 2.633023, -0.301592, -0.970216, 1.326498, 66.779053, -28.822586, 51.668198
1649447406.483038, 7.494899, -12.741193, 2.505382, -0.339657, -0.948394, -2.407236, 70.141861, -29.902756, 51.863922
1649447406.516417, 0.625934, -11.759271, 0.809539, -0.131683, -0.917613, -3.468266, 75.471222, -31.948227, 50.837753
1649447406.549712, 5.213075, -11.072584, 0.324414, 0.091912, -0.285043, -4.174669, 81.244537, -33.725311, 50.125000
1649447406.583030, 2.933196, -9.913641, 1.570447, 0.081461, -0.397887, -4.662582, 90.439117, -33.849472, 49.699463
1649447406.616364, 3.147926, -9.052626, 1.253514, 0.292411, -0.387466, -4.725780, 97.443985, -32.413864, 49.021469
1649447406.649714, 3.801094, -8.139238, 1.089661, 0.319613, -0.772544, -4.475631, 103.879730, -30.470474, 47.741104
1649447406.683015, 3.607164, -7.370699, 0.798915, 0.327496, -0.773169, -3.897854, 110.715378, -25.903503, 47.084076
1649447406.716362, 3.032406, -7.814973, 1.019631, 0.272775, -0.410653, -3.346589, 114.044098, -22.389801, 46.267670
1649447406.749721, 2.831892, -8.550592, 1.553987, 0.184824, 0.018557, -2.694302, 116.254181, -19.776031, 45.376343
1649447406.782555, 2.118420, -9.053823, 1.731008, 0.005903, -0.002910, -1.901771, 117.294891, -17.973663, 44.606155
1649447406.816351, -0.825850, -9.086295, 1.089362, -0.107358, 0.450644, -0.576457, 116.893372, -16.815109, 44.743347
1649447406.849691, -2.949208, -9.967211, 0.420033, 0.030754, 1.205519, 0.472370, 115.811050, -17.718292, 44.693085
1649447406.883022, -2.483535, -11.363929, 1.515679, 0.362970, 0.819794, 1.490553, 113.924225, -19.540253, 45.221390
1649447406.916559, -15.677232, -15.696985, 0.616657, 0.561761, 0.540733, 3.085215, 109.622101, -22.094650, 46.166870
1649447406.949680, 9.451261, -22.760628, 2.894440, 0.274434, -0.362384, 1.787243, 107.017776, -23.662537, 46.394806
1649447406.983033, -7.286005, -15.019575, 3.224092, 0.196245, 1.189882, 1.347947, 105.163895, -24.894867, 46.506241
1649447407.016431, 2.459444, -10.672902, 3.880851, 0.008295, 0.675217, 1.090248, 102.763977, -25.700272, 47.365891
1649447407.049708, 4.843620, -13.281983, 1.245883, -0.237393, 0.794635, 0.909626, 101.229858, -26.391418, 46.926727
1649447407.083066, 4.532074, -9.922769, 4.242226, -0.139867, 0.114234, 1.202190, 99.965469, -27.285797, 47.010101
1649447407.116376, 4.271705, -8.474277, 2.198476, -0.248098, 0.220363, 1.460846, 97.707993, -28.133530, 47.108521
1649447407.149887, 2.683152, -9.021801, 2.634220, -0.290942, 0.148760, 1.555670, 96.033493, -28.795578, 47.016418
1649447407.183042, 2.327613, -7.554604, 2.422932, -0.316831, 0.260418, 1.618533, 93.958893, -29.789307, 46.372101
1649447407.216534, 0.415095, -8.750358, 1.967136, -0.221779, 0.009352, 1.570087, 91.964096, -30.831879, 45.920990
1649447407.249703, -0.974290, -9.125051, 2.517802, -0.197408, 0.024364, 1.399189, 89.346741, -30.858932, 46.036514
1649447407.283034, -1.629554, -9.355044, 2.660108, -0.218656, -0.024958, 1.195558, 87.730179, -31.502350, 45.449585
1649447407.316366, -1.195604, -9.552116, 1.990330, -0.213912, 0.137649, 1.021924, 86.316681, -32.118744, 44.622284
1649447407.349875, -0.555006, -9.180267, 2.751536, -0.279340, 0.055533, 1.029474, 84.258514, -32.037689, 44.988983
1649447407.383072, 0.923264, -9.114576, 1.804181, -0.317690, 0.016653, 1.253825, 82.872772, -32.554276, 44.396439
1649447407.416351, 1.152958, -9.893739, 2.006191, -0.403739, 0.194939, 1.583285, 80.791214, -33.003998, 43.263107
1649447407.449844, 1.920449, -9.759813, 1.660080, -0.399088, -0.068588, 1.926436, 77.645279, -32.815536, 43.224182
1649447407.483073, 2.597709, -12.068572, 3.304148, -0.140142, 0.301141, 1.909820, 75.090042, -32.881744, 42.464203
1649447407.516352, 1.488146, -11.061361, 3.071013, -0.281297, -0.101308, 2.016974, 72.242966, -33.139771, 42.006927
1649447407.549669, -1.629853, -11.869404, 0.831985, -0.004980, -0.150473, 1.924223, 68.637009, -33.152527, 42.856567
1649447407.583012, -6.096535, -11.890803, 1.821539, 0.156918, -0.303633, 0.854245, 67.426697, -33.103897, 43.775055
1649447407.616351, 6.575974, -11.424532, 2.123208, -0.251363, -0.722127, -1.588401, 69.383453, -34.741425, 44.236603
1649447407.649855, 0.555006, -11.023503, 0.444274, -0.090248, -0.164460, -3.182733, 73.954468, -37.607056, 45.053970
1649447407.683011, 5.464616, -10.535235, 1.481861, 0.064131, -0.288458, -3.806941, 82.977844, -39.606689, 47.324020
1649447407.716523, 2.955492, -10.116400, 1.808969, 0.061977, -0.632075, -3.992013, 90.856064, -40.052231, 48.213303
1649447407.749677, 2.998887, -9.410559, 0.943465, 0.121754, -0.590975, -4.027315, 99.217590, -39.196106, 49.410400
1649447407.783181, 3.086724, -8.313416, 0.597802, 0.046665, -0.645617, -3.704255, 108.887451, -35.366867, 51.087738
1649447407.816345, 3.216909, -7.853580, 0.584784, -0.013624, -0.675492, -3.271419, 114.963120, -31.332062, 51.429306
1649447407.849677, 2.830695, -7.994090, 0.468216, -0.118200, -0.641219, -2.774467, 119.553802, -27.156143, 50.919586
1649447407.882995, 2.878728, -8.622268, 0.289100, -0.285630, -0.590655, -2.082741, 123.755875, -20.998016, 50.327972
1649447407.916357, 1.602020, -9.140912, -0.012719, -0.331484, -0.142723, -1.572001, 124.794525, -16.783997, 49.702820
1649447407.949855, 1.508796, -9.097218, 0.243161, -0.217103, 0.415926, -0.985785, 124.978821, -13.815125, 49.591782
1649447407.983186, -0.874632, -9.728838, 1.053149, -0.255092, 0.641978, -0.162461, 123.832199, -11.302002, 49.326538
1649447408.016532, 1.694197, -10.186131, 0.484676, -0.122138, 0.600990, 0.527097, 121.789520, -9.074463, 50.277710
1649447408.049669, -6.211457, -7.907450, -0.404022, 0.359991, 1.828884, 1.946165, 119.286423, -8.930573, 50.445984
1649447408.083180, 3.201945, -22.312762, 10.839598, 0.217978, 0.493361, 2.040152, 116.896805, -10.047379, 51.335922
1649447408.116417, -3.589956, -14.209587, 3.234267, 0.403415, -0.363541, 1.746432, 115.000778, -10.181351, 52.381500
1649447408.149863, 6.122572, -12.366351, 0.112378, 0.188393, 0.121591, 1.569279, 113.442642, -10.667511, 52.143936
1649447408.183016, 1.268478, -12.040590, 3.935918, 0.136855, 0.270454, 1.551174, 111.810425, -11.281738, 51.736588
1649447408.216517, 3.364901, -9.241918, 2.826954, 0.010224, -0.289747, 1.582449, 109.658676, -11.771942, 51.927673
1649447408.249680, 2.627786, -9.168296, 1.849820, -0.087707, -0.127213, 1.635704, 108.215469, -12.087631, 51.636154
1649447408.283178, 1.355118, -8.618677, 2.324471, -0.141983, -0.095032, 1.619891, 106.540329, -12.612091, 51.095673
1649447408.316062, -0.141408, -8.866477, 1.814206, -0.168074, 0.013732, 1.420349, 105.041061, -13.080811, 50.390381
1649447408.349278, -1.110012, -8.679430, 2.094777, -0.148751, 0.045548, 1.205745, 103.382339, -12.741913, 50.952698
1649447408.382610, -2.305915, -9.474754, 1.717540, -0.142896, 0.266921, 0.918243, 102.204849, -13.030930, 50.587204
1649447408.415950, -1.369334, -9.213487, 1.697190, -0.101757, 0.238884, 0.668208, 101.339767, -13.323364, 50.352356
1649447408.449273, -0.645686, -9.584588, 2.460940, -0.175687, 0.140142, 0.637959, 100.387741, -12.874069, 50.951859
1649447408.482622, 0.552911, -10.211869, 2.119018, -0.271214, 0.316347, 0.770648, 99.560715, -13.026840, 50.656250
1649447408.515926, 3.068020, -8.924536, 1.069310, -0.343381, 0.473614, 1.314652, 98.350525, -13.316422, 50.112778
1649447408.549268, 2.612224, -10.731710, 2.117073, -0.544090, 0.049362, 1.749593, 96.187119, -13.106216, 50.687897
1649447408.582615, 2.198476, -10.400562, 1.464653, -0.559051, -0.082090, 1.998613, 94.617081, -12.903305, 50.249039
1649447408.615937, 1.980753, -11.266215, 3.462913, -0.315353, 0.005319, 1.953439, 92.344421, -12.432159, 49.692184
1649447408.649283, 2.107646, -12.351986, 1.412280, -0.329668, -0.645880, 2.246032, 89.915253, -11.830002, 48.938278
1649447408.682616, -2.655619, -13.230957, 1.140538, 0.021787, -0.161170, 1.757704, 86.365173, -9.663025, 49.697098
1649447408.715948, -0.532411, -12.702138, 4.733935, -0.017199, -1.159293, 0.216830, 84.228622, -9.169113, 49.332886
1649447408.749346, 1.671153, -9.971850, 1.687912, -0.167542, -0.892915, -2.886330, 83.684860, -9.854614, 48.813248
1649447408.782609, 2.519598, -10.450241, 0.183755, 0.052401, -0.102366, -3.792275, 84.138580, -12.257431, 49.533676
1649447408.815934, 4.188955, -10.783335, 1.591845, 0.170412, -0.084883, -4.125424, 86.081345, -14.847076, 49.167557
1649447408.849262, 3.386000, -9.124153, 1.830218, 0.223867, -0.509853, -4.132382, 89.701965, -17.491455, 48.497101
1649447408.882592, 2.665944, -8.043620, 1.168819, 0.315436, -0.602852, -3.896468, 95.994308, -18.552109, 48.097855
1649447408.915939, 3.193266, -7.649025, 1.060781, 0.293369, -0.737086, -3.520010, 100.812805, -17.736374, 46.223633
1649447408.949280, 2.757073, -7.686884, 0.834978, 0.215903, -0.528959, -2.892570, 104.593658, -16.392487, 44.261810
1649447408.982587, 2.099266, -8.286631, 0.899771, 0.085281, -0.238840, -2.383655, 107.120148, -12.970505, 41.602219
1649447409.015989, 2.196979, -9.228750, 0.714669, -0.019835, 0.030803, -1.822726, 107.736832, -11.115295, 39.390717
1649447409.049292, 1.268328, -9.035119, 0.288052, -0.098684, 0.133496, -1.157986, 107.383377, -10.378296, 37.364853
1649447409.083437, -0.166696, -10.267833, 1.056292, -0.186275, 0.842385, -0.263722, 105.997635, -10.290283, 35.727295
1649447409.116034, -2.092233, -10.450092, 0.699705, -0.195273, 1.328688, 0.323246, 104.166656, -10.062027, 34.920822
1649447409.149265, -1.085920, -8.711452, 1.434426, 0.204282, 0.963256, 1.267713, 102.552994, -11.021957, 34.060120
1649447409.182594, -14.129381, -12.907740, 1.171214, 0.422887, 1.599724, 2.855908, 100.305573, -12.382385, 32.676254
1649447409.215916, 6.291214, -14.358027, 4.809053, 0.152828, 0.037904, 1.822353, 97.727997, -13.053665, 32.938034
1649447409.249251, -2.889053, -13.573328, 2.385822, 0.030267, 0.517384, 1.448712, 96.385208, -13.711151, 31.946884
1649447409.282585, 3.435829, -13.608792, 1.373374, -0.090559, 0.473025, 1.103511, 95.332489, -13.977448, 31.442810
1649447409.315905, 4.691737, -10.295217, 4.932504, -0.123501, -0.137090, 1.311226, 93.816879, -13.843674, 32.068375
1649447409.349253, 3.403956, -8.406042, 2.477849, -0.208616, -0.026351, 1.452093, 92.682312, -14.145447, 31.837799
1649447409.382577, 2.621352, -8.533084, 2.122011, -0.229448, 0.001025, 1.620111, 90.911362, -14.314621, 31.617447
1649447409.415979, 1.281496, -8.492682, 2.051980, -0.224180, -0.110942, 1.556891, 89.349442, -14.711838, 31.100586
1649447409.449270, -0.697611, -8.918252, 2.220921, -0.214360, 0.024799, 1.459540, 87.485672, -14.046082, 31.849823
1649447409.482569, -0.920271, -9.165453, 1.848623, -0.190066, 0.058590, 1.211380, 86.261124, -14.213837, 31.186234
1649447409.515918, -1.287482, -9.603592, 2.520645, -0.201466, 0.061707, 1.066272, 85.103485, -14.229767, 30.875198
1649447409.549243, -2.120963, -9.705495, 1.901295, -0.221634, 0.050871, 0.864033, 83.940903, -13.495468, 31.581238
1649447409.582585, -1.352425, -9.091083, 2.171391, -0.237445, 0.054167, 0.684208, 83.489319, -13.597717, 31.094284
1649447409.615918, -1.867477, -9.292346, 2.246958, -0.362339, 0.383924, 0.720671, 82.592392, -13.856186, 30.607407
1649447409.649242, 2.198625, -9.286809, 1.459416, -0.350812, 0.589361, 1.050838, 81.506241, -13.287323, 30.867996
1649447409.682584, 4.465186, -10.847230, 1.817648, -0.439795, 0.187330, 1.693403, 79.933197, -13.081909, 30.713928
1649447409.715918, 1.287033, -10.588058, 1.976713, -0.326237, 0.032656, 1.927217, 78.490067, -12.689056, 29.991760
1649447409.749308, 5.752069, -14.117709, 2.953996, -0.492140, -0.499295, 2.244347, 75.769714, -11.086411, 31.403503
1649447409.782592, 1.386392, -11.852196, 1.803432, -0.049205, -0.472769, 2.089452, 73.820816, -9.668243, 32.875809
1649447409.815908, -2.668038, -13.408876, 2.869151, 0.063274, -1.121513, 0.670743, 72.110886, -8.323502, 34.436874
1649447409.849318, 7.979126, -11.445032, 1.652298, -0.241433, -1.323976, -1.935986, 71.826401, -8.268677, 36.794418
1649447409.882577, 0.584335, -11.757775, -0.091728, -0.263394, -0.908913, -3.298868, 73.354416, -8.990845, 41.193451
1649447409.915896, 4.072387, -10.589404, 0.415095, -0.070005, -0.680886, -4.041215, 74.744766, -10.597748, 43.578812
1649447409.949237, 2.377592, -9.683648, 0.839766, -0.146116, -0.806999, -4.134731, 76.757584, -12.337051, 45.279129
1649447409.982570, 2.119467, -8.661773, 0.515202, -0.125546, -0.624180, -4.043097, 80.158081, -13.806183, 48.457382
1649447410.015906, 2.059462, -8.346636, 0.495899, -0.248596, -0.320002, -3.848812, 82.437256, -15.282883, 49.480560
1649447410.049250, 2.238130, -8.240992, 0.414646, -0.344870, 0.256059, -3.398312, 84.589218, -16.925003, 50.217041
1649447410.082555, 2.339734, -8.491186, 0.950199, -0.351857, 0.724729, -2.931250, 86.484329, -18.187180, 51.250885
1649447410.115988, 2.443881, -8.908974, 1.464503, -0.398424, 0.583394, -2.313895, 87.840378, -19.667084, 51.162201
1649447410.149232, 0.594959, -9.037662, 1.727117, -0.338544, 0.724486, -1.289902, 88.936646, -21.452057, 50.901962
1649447410.182565, -0.684442, -9.470414, 1.337012, -0.172406, 1.011175, -0.459504, 89.295319, -23.087036, 50.554962
1649447410.215954, -3.273622, -10.020632, 1.347786, -0.049190, 1.169139, 0.475732, 88.220795, -24.503967, 51.315384
1649447410.249241, -3.662231, -9.816227, 1.028010, 0.383273, 0.438809, 2.538382, 86.445068, -25.833557, 50.893478
1649447410.282574, -7.226150, -17.588554, 7.593211, 0.555917, 1.606454, 2.522398, 82.546371, -26.453659, 50.966705
1649447410.316011, -3.171270, -12.499828, 0.820014, 0.104850, 0.651305, 1.790599, 79.044388, -26.404800, 51.600372
1649447410.349227, 2.418144, -18.368315, 5.349544, 0.303459, 0.346038, 1.154565, 77.214203, -26.410248, 51.088852
1649447410.382567, 6.375011, -9.242217, 4.145859, -0.039509, 0.035497, 1.290645, 76.094894, -26.524734, 50.807922
1649447410.415881, 4.714782, -9.304466, 3.230526, -0.184583, 0.106465, 1.648986, 74.151398, -25.707947, 50.953171
1649447410.449552, 2.063652, -8.522011, 2.608333, -0.258102, 0.199699, 1.800213, 72.325409, -25.662582, 50.689056
1649447410.482557, 2.273444, -8.739435, 1.680730, -0.215628, -0.090671, 1.836689, 70.856766, -25.612198, 49.809814
1649447410.515956, 0.316633, -8.722376, 1.119140, -0.109999, -0.081853, 1.814317, 69.302765, -25.637451, 49.672119
1649447410.549219, -0.175375, -8.768614, 2.548478, -0.134311, -0.189493, 1.793056, 67.095078, -24.398148, 50.353378
1649447410.582553, -1.899500, -9.160964, 2.422782, -0.278901, 0.110816, 1.566100, 65.581772, -24.192398, 49.861710
1649447410.615879, -1.050755, -9.417592, 1.867178, -0.261032, 0.208470, 1.523089, 63.962784, -24.181976, 49.178940
1649447410.649216, -0.075717, -9.554361, 0.924162, -0.155221, 0.056945, 1.498766, 61.958252, -22.556717, 49.533997
1649447410.682540, 0.505925, -9.853786, 2.315043, -0.112021, -0.261722, 1.604262, 60.857117, -22.222305, 49.261124
1649447410.715903, 0.143353, -9.059360, 2.931101, -0.147203, -0.354103, 1.763551, 59.267776, -21.876160, 49.072952
1649447410.749211, -0.549469, -9.208249, 0.855329, -0.076414, -0.155921, 1.909194, 57.558823, -20.628601, 49.754654
1649447410.782556, -0.367809, -9.758766, 1.633893, 0.001202, 0.138773, 2.097841, 55.993149, -19.951935, 49.688232
1649447410.816028, -1.601272, -11.131242, 3.919158, -0.132177, -0.488187, 1.891107, 53.985107, -19.378159, 49.889679
1649447410.849206, -4.985626, -12.525266, 2.976591, -0.256476, -1.114628, 1.288733, 53.787460, -18.836487, 51.888672
1649447410.882521, -5.222352, -16.574310, 1.264737, -0.238361, -1.089934, -0.877420, 55.681717, -19.882095, 52.881882
1649447410.916712, 10.137050, -13.056629, -1.447145, -0.327061, 0.401686, -3.237705, 59.351776, -23.773941, 52.683792
1649447410.949262, 4.218583, -12.910732, 1.344793, -0.216513, 0.695994, -3.730172, 64.223557, -27.998489, 51.986694
1649447410.982539, 7.012916, -11.213243, 2.668637, -0.287004, 0.023936, -4.091888, 73.385712, -31.765991, 52.570389
1649447411.015920, 4.639664, -8.460211, 1.293318, -0.072118, -0.265465, -4.233667, 81.471970, -33.606140, 51.910294
1649447411.049234, 4.099173, -7.227945, 1.329979, 0.080655, -0.637221, -4.098414, 89.563477, -33.435913, 51.922012
1649447411.082540, 3.552696, -6.293159, 1.280898, 0.053448, -0.951791, -3.788395, 99.259460, -29.693527, 52.049622
1649447411.115877, 3.651906, -6.183026, 0.929848, 0.048508, -0.791494, -3.210793, 104.632706, -26.071182, 50.999893
1649447411.149213, 3.022829, -7.740155, 1.424251, -0.032057, -0.374810, -2.702682, 107.869812, -22.151199, 49.450638
1649447411.182622, 2.877531, -8.836101, 1.925686, -0.073310, -0.101255, -2.138298, 109.538101, -17.229965, 48.795822
1649447411.215864, 0.910694, -9.590873, 2.061108, 0.035450, 0.517887, -1.187643, 108.741516, -14.482849, 48.472656
1649447411.249203, 0.276381, -11.987917, 3.696049, -0.183681, 0.469439, -0.474270, 107.975983, -13.223160, 47.725220
1649447411.282562, -6.330269, -11.244368, 2.247407, -0.092634, 0.696925, 0.732150, 106.306519, -12.797867, 47.475754
1649447411.315858, -21.472248, -15.090354, 0.467019, 0.160462, 1.526194, 3.504494, 102.385941, -12.916000, 48.415634
1649447411.349198, 10.480618, -24.457668, 5.585822, 0.135909, -0.336653, 2.237242, 99.765579, -13.219284, 47.455673
1649447411.382598, -9.086295, -18.129194, -2.104054, 0.032997, 1.299004, 1.473840, 98.313446, -13.614349, 47.326019
1649447411.415865, 6.876297, -11.842919, 6.458658, 0.045840, -0.268685, 1.481705, 96.331467, -13.191284, 47.754135
1649447411.449203, 4.925322, -7.501632, 2.884863, -0.212205, 0.299460, 1.628994, 94.952087, -13.502045, 47.481415
1649447411.482615, 2.902521, -9.921123, 2.788347, -0.297758, 0.131897, 1.783490, 93.319397, -14.019867, 46.868927
1649447411.515862, 1.857152, -8.206725, 1.528249, -0.314601, 0.028014, 1.817711, 91.400879, -14.119476, 47.280106
1649447411.549218, 0.343119, -9.138967, 1.416470, -0.230739, -0.206530, 1.728549, 90.134384, -14.006393, 46.831589
1649447411.582577, -0.420033, -8.754997, 2.518401, -0.228430, -0.154149, 1.668982, 89.056473, -14.369019, 46.000839
1649447411.615881, -1.231368, -9.430760, 2.073229, -0.287975, 0.003647, 1.505812, 87.816467, -14.511169, 45.155609
1649447411.649297, -1.691803, -9.149741, 1.283591, -0.282656, 0.331090, 1.320092, 86.290314, -13.881302, 45.904556
1649447411.682611, -0.354940, -9.680057, 1.330129, -0.238883, 0.316501, 1.292671, 85.259979, -13.979523, 45.054611
1649447411.715886, 0.849193, -9.742156, 1.184980, -0.179073, -0.008212, 1.471012, 83.943329, -13.978043, 44.470215
1649447411.749187, 1.798943, -10.306739, 2.258331, -0.184129, -0.265247, 1.736931, 82.659454, -12.756927, 45.034149
1649447411.782561, 1.003769, -9.864859, 2.280627, -0.177219, -0.305265, 1.884799, 81.411987, -12.691986, 44.471542
1649447411.815871, 0.573860, -10.237307, 1.667561, -0.184369, -0.167281, 1.990035, 79.910889, -11.985229, 43.700073
1649447411.849238, -0.574908, -12.191873, 2.007837, -0.098727, -0.468934, 1.834239, 78.436920, -10.521042, 44.158249
1649447411.882604, -3.315969, -12.059294, 1.938256, -0.116071, -0.835373, 1.397732, 77.685791, -10.043701, 43.607651
1649447411.915856, -3.483713, -14.614955, 2.406771, -0.162859, -1.207903, -0.314144, 77.239822, -9.844772, 43.579712
1649447411.949209, 7.920917, -11.888259, 0.355988, -0.090733, -0.587322, -2.565521, 79.062271, -10.374390, 44.821350
1649447411.982525, 4.266318, -10.893318, 0.866402, -0.026114, -0.259062, -3.504910, 80.572220, -11.205460, 45.319138
1649447412.015911, 3.732111, -10.357316, 1.209371, -0.132986, -0.166361, -3.871984, 82.532333, -12.441177, 44.737732
1649447412.049182, 3.187730, -8.921394, 1.035343, -0.116910, -0.140514, -4.035790, 84.421158, -13.365860, 44.348190
1649447412.082525, 3.325097, -7.639449, 0.985962, -0.065136, -0.286503, -3.848861, 87.391296, -13.761688, 45.943756
1649447412.115845, 2.942025, -7.213430, 0.894683, -0.131660, -0.246815, -3.545233, 89.392853, -14.538803, 45.735809
1649447412.149247, 2.614468, -7.434295, 0.837821, -0.171391, 0.101693, -3.189300, 90.835709, -15.279968, 45.840790
1649447412.182521, 2.607585, -8.320150, 1.128268, -0.156920, 0.483886, -2.611838, 92.648743, -15.589172, 46.852539
1649447412.215834, 2.372953, -9.189245, 1.212514, -0.154566, 0.613207, -2.093290, 93.450211, -16.561493, 46.973312
1649447412.249248, 0.705541, -9.981427, 0.371101, -0.018468, 0.959588, -1.495857, 94.139374, -17.778198, 47.198288
1649447412.282662, 0.125845, -10.252570, 1.175553, 0.020004, 0.959206, -0.314994, 93.789139, -18.818558, 49.063507
1649447412.315893, -6.703765, -11.577761, -1.387589, -0.086951, 1.036025, 1.166042, 92.813202, -20.100449, 49.447128
1649447412.350010, -19.422662, -14.617349, -0.211737, -0.004464, 2.077962, 2.862854, 89.213287, -21.175064, 49.578491
1649447412.382536, 11.549479, -22.508189, 6.595277, -0.025016, -0.152470, 2.059356, 86.194031, -21.731216, 49.392105
1649447412.415885, 0.745195, -17.860295, -2.813337, -0.148865, 1.585995, 1.135825, 83.249863, -21.483276, 50.104660
1649447412.449181, 2.149993, -9.231742, 7.538892, 0.069866, -0.045753, 1.095334, 82.145905, -21.657745, 49.763489
1649447412.482507, 5.580136, -7.174824, 3.168726, -0.230179, 0.289242, 1.331980, 81.175552, -22.105362, 49.595764
1649447412.515831, 3.255216, -9.117868, 2.262521, -0.279004, 0.203952, 1.562196, 79.039261, -21.675995, 49.970413
1649447412.549188, 2.611176, -8.363844, 2.466177, -0.323830, 0.123421, 1.584594, 77.515427, -21.905472, 49.872009
1649447412.582514, 0.664391, -8.925434, 1.695843, -0.276077, 0.056987, 1.590880, 76.164307, -21.994308, 49.110443
1649447412.615839, 0.301969, -9.249250, 2.044648, -0.218608, -0.132095, 1.424555, 74.068848, -21.713348, 49.928482
1649447412.649180, -1.381005, -8.919598, 2.476951, -0.219389, -0.112132, 1.299727, 73.254959, -21.647781, 49.920181
1649447412.682520, -1.742530, -9.174880, 2.063951, -0.216129, 0.089580, 1.073878, 72.037308, -21.575729, 49.302765
1649447412.715941, -0.362722, -9.352201, 2.645593, -0.295584, 0.205280, 1.077799, 70.859619, -21.643005, 48.886429
1649447412.749196, -0.510414, -9.694871, 2.416947, -0.424040, 0.311065, 1.128545, 69.395538, -20.958755, 49.497818
1649447412.782515, 0.095170, -9.495703, 1.770961, -0.457244, 0.379797, 1.297956, 68.198578, -20.926422, 48.766891
1649447412.815878, 2.690634, -9.575310, 0.971747, -0.372074, 0.081209, 1.588529, 66.450729, -20.676300, 47.669144
1649447412.849183, 2.545635, -11.233744, 2.391508, -0.325836, -0.159228, 1.886757, 64.347015, -19.409561, 48.784714
1649447412.882508, 2.271200, -11.528680, 3.471742, -0.408957, -0.619938, 1.965168, 62.971313, -19.159760, 48.840836
1649447412.915831, -0.171335, -12.193968, 1.135300, -0.131177, -0.319281, 1.868009, 61.864655, -18.719482, 48.463531
1649447412.949165, -4.634426, -11.890354, 2.146851, -0.183345, -0.458662, 1.268882, 60.562454, -18.065750, 50.196198
1649447412.982507, 4.730494, -12.928390, 3.539229, -0.348959, -0.772644, -0.906306, 61.551086, -19.693222, 50.447479
1649447413.015844, 2.730288, -10.935815, 2.001553, -0.220612, -0.279099, -2.624700, 64.269165, -23.029312, 50.594559
1649447413.049163, 3.802740, -9.906608, 1.188871, -0.031999, 0.187951, -3.494832, 69.661011, -27.835205, 51.341858
1649447413.082502, 2.950554, -9.114875, 1.531541, 0.109260, -0.009971, -3.700130, 75.013382, -30.905746, 51.524857
1649447413.116679, 3.228731, -8.674043, 1.561618, 0.207020, -0.310032, -3.759338, 81.228622, -33.534897, 51.655838
1649447413.149265, 3.171120, -7.990648, 1.003619, 0.329866, -0.518924, -3.606957, 88.247696, -34.900024, 51.707870
1649447413.182487, 2.932149, -7.877073, 1.026514, 0.260019, -0.589116, -3.317215, 96.964096, -34.242874, 52.708496
1649447413.215888, 2.911499, -8.069657, 0.974440, 0.149208, -0.449105, -2.940125, 103.135895, -33.013397, 52.398544
1649447413.249144, 2.139818, -8.984092, 0.844255, 0.019601, 0.157517, -2.324253, 107.885849, -31.534195, 51.232437
1649447413.282510, 1.367239, -9.062801, -0.220865, -0.028577, 0.494879, -1.759655, 111.391434, -28.147278, 51.789764
1649447413.315907, -0.307056, -8.638130, -0.379032, 0.048198, 0.779730, -0.945188, 112.947693, -26.324112, 50.912598
1649447413.349540, -0.670526, -9.624990, 1.075146, 0.058633, 0.544531, 0.716013, 113.102829, -25.566711, 50.536026
1649447413.382842, -14.547618, -12.961460, -1.338359, -0.145373, 1.911067, 2.667228, 109.818481, -26.023819, 50.951065
1649447413.416209, -2.575712, -24.576031, 15.098883, 0.052809, 0.370244, 2.396430, 106.195679, -27.245911, 51.759140
1649447413.449464, -6.259341, -15.912612, -0.279972, 0.165627, -0.479354, 1.316708, 105.031219, -27.942719, 51.093307
1649447413.482915, 7.311742, -8.215703, 5.976526, 0.129941, 0.083455, 1.177733, 103.440079, -28.392715, 50.849777
1649447413.516307, 3.650409, -7.440131, 4.672285, -0.069403, -0.039578, 1.348464, 101.371384, -28.359619, 51.195938
1649447413.549524, 3.545364, -9.598055, 1.724124, -0.101034, 0.236610, 1.490960, 99.661758, -28.922363, 50.503052
1649447413.582849, 0.605583, -8.497471, 2.052729, -0.127666, 0.085858, 1.467901, 98.137299, -29.382233, 49.911728
1649447413.616171, 1.418415, -8.813356, 1.564760, -0.110329, 0.161427, 1.382614, 95.727036, -29.130051, 50.404465
1649447413.649544, -0.232238, -9.097817, 2.501641, -0.113711, 0.074463, 1.294293, 94.009933, -29.449539, 49.942245
