SamplingTime, AccelerationX, AccelerationY, AccelerationZ, GyroX, GyroY, GyroZ, MagneticFieldX, MagneticFieldY, MagneticFieldZ
1649446850.219377, 1.267730, -9.644443, 1.345990, -0.010289, 0.014101, 0.012425, 93.268082, -32.547409, -3.871643
1649446850.252714, 1.246631, -9.652673, 1.402254, -0.002626, -0.009061, 0.028241, 93.192947, -32.492050, -4.205444
1649446850.286040, 1.181539, -9.598055, 1.409287, -0.001529, -0.033936, 0.025595, 93.148773, -32.522980, -4.135117
1649446850.319391, 0.864905, -9.641749, 1.447594, -0.007014, 0.003694, -0.001714, 93.167038, -32.727463, -4.206573
1649446850.352670, 0.982371, -9.660155, 1.449091, -0.016529, 0.032392, -0.016281, 93.224548, -32.739441, -3.818741
1649446850.386079, 1.232116, -9.594165, 1.461361, -0.010170, -0.020388, -0.010610, 93.253540, -32.651230, -4.232971
1649446850.419405, 1.058985, -9.727941, 1.399561, -0.014538, 0.017187, -0.011859, 93.077347, -32.534180, -4.269196
1649446850.452725, 1.314117, -9.633070, 1.323245, -0.007863, 0.014820, 0.005383, 93.145386, -32.429321, -4.377899
1649446850.486011, 1.087566, -9.617807, 1.410783, -0.003655, 0.006169, 0.016532, 93.144745, -32.484818, -4.022797
1649446850.519420, 1.118391, -9.650728, 1.393874, -0.000927, 0.001073, 0.012062, 93.185852, -32.461334, -4.293686
1649446850.552707, 1.084274, -9.650279, 1.371429, 0.001197, 0.016814, 0.006097, 93.114822, -32.505600, -4.413940
1649446850.586002, 1.017685, -9.639355, 1.425448, -0.001911, 0.015800, 0.007185, 93.081589, -32.469009, -4.515915
1649446850.619358, 1.165677, -9.627833, 1.463306, -0.005596, -0.013219, -0.000916, 93.085175, -32.410645, -4.203537
1649446850.652672, 1.068263, -9.689334, 1.353023, -0.003445, 0.005748, -0.004689, 93.077637, -32.382782, -4.385498
1649446850.686852, 1.248726, -9.603741, 1.438915, -0.003703, 0.008730, 0.004955, 93.114090, -32.380127, -4.360703
1649446850.719345, 1.078887, -9.665093, 1.416918, 0.001686, -0.009681, 0.009590, 93.085175, -32.455765, -4.594482
1649446850.752689, 1.079336, -9.658060, 1.337461, -0.001159, 0.014397, 0.000162, 92.891281, -32.452087, -4.335297
1649446850.786003, 1.105074, -9.670929, 1.394922, -0.003679, 0.003375, 0.003599, 93.129074, -32.486816, -4.446594
1649446850.819416, 1.142034, -9.641300, 1.403301, 0.001556, -0.008421, 0.004361, 93.132965, -32.409714, -4.366699
1649446850.852753, 1.051055, -9.604041, 1.371129, 0.000619, 0.011770, -0.001439, 92.984924, -32.404968, -4.406754
1649446850.886060, 1.101333, -9.669432, 1.362600, 0.003306, 0.025202, -0.007410, 93.162506, -32.707336, -4.351212
1649446850.919438, 1.186177, -9.602694, 1.390433, 0.007057, 0.010818, 0.003017, 93.146927, -32.557709, -4.282120
1649446850.952760, 1.192911, -9.572766, 1.378761, 0.009942, 0.008362, 0.006819, 93.117691, -32.526215, -4.102966
1649446850.986059, 1.108216, -9.670480, 1.419762, 0.007627, 0.030687, -0.000292, 93.158508, -32.562469, -4.298401
1649446851.019362, 1.043124, -9.647735, 1.447145, 0.006073, 0.006038, -0.001242, 93.118790, -32.564804, -4.324020
1649446851.052738, 1.097293, -9.669732, 1.449689, -0.001393, 0.010703, -0.002909, 92.982422, -32.521835, -4.134262
1649446851.086007, 1.095198, -9.588329, 1.394024, 0.002958, -0.003439, -0.005270, 93.022430, -32.614624, -4.060562
1649446851.119340, 1.054197, -9.675119, 1.391031, -0.000967, 0.026800, -0.013875, 93.333374, -32.622421, -3.811279
1649446851.152690, 1.258303, -9.626187, 1.414824, 0.007177, -0.010096, -0.000989, 93.145828, -32.490036, -4.150192
1649446851.186004, 1.089362, -9.657312, 1.386392, 0.003108, 0.016097, -0.001883, 93.136292, -32.788147, -4.264603
1649446851.219459, 1.161786, -9.622895, 1.452682, 0.005927, 0.006719, 0.003190, 93.064209, -32.525208, -4.205490
1649446851.252671, 1.114202, -9.639804, 1.419762, 0.000521, 0.009463, 0.000957, 93.224243, -32.358505, -3.916077
1649446851.286111, 1.112406, -9.682750, 1.395221, 0.002219, 0.019165, 0.000370, 93.160553, -32.596817, -4.062622
1649446851.319343, 1.063923, -9.650728, 1.442656, -0.001521, 0.010947, 0.000924, 93.067139, -32.742508, -3.741043
1649446851.352862, 1.150264, -9.612121, 1.415871, -0.000671, -0.000064, -0.000165, 93.258423, -32.519440, -4.321854
1649446851.386098, 1.128716, -9.634567, 1.407940, -0.003561, 0.003164, -0.003226, 92.997177, -32.614059, -4.054474
1649446851.419427, 1.060182, -9.625140, 1.429488, -0.007233, 0.002153, -0.007561, 93.216415, -32.469254, -4.224823
1649446851.452687, 1.129016, -9.641749, 1.417517, -0.001427, -0.009378, -0.018454, 92.973663, -32.529266, -4.156281
1649446851.486026, 0.915483, -9.690980, 1.499818, -0.011011, 0.018534, -0.016698, 93.132462, -32.573792, -3.632294
1649446851.519358, 1.238401, -9.631125, 1.320253, -0.002752, 0.019570, -0.005560, 93.325119, -32.647156, -4.117828
1649446851.552733, 1.255160, -9.621698, 1.369334, 0.003069, 0.005249, 0.006241, 93.232559, -32.474014, -4.086121
1649446851.586076, 1.162086, -9.613019, 1.362301, 0.004930, -0.003828, 0.017594, 93.111267, -32.522812, -4.169632
1649446851.619417, 1.105074, -9.605088, 1.420360, 0.005526, 0.005434, 0.010582, 93.098938, -32.457687, -3.963852
1649446851.652740, 0.988207, -9.670330, 1.428740, 0.004981, -0.001039, -0.001233, 93.108063, -32.736862, -3.958450
1649446851.686025, 0.964564, -9.658658, 1.357662, -0.002331, 0.032456, -0.012295, 93.279358, -32.598770, -4.216766
1649446851.719403, 1.193659, -9.608679, 1.400758, 0.001192, 0.026612, -0.012348, 93.084656, -32.568237, -4.067352
1649446851.753504, 1.187374, -9.624990, 1.442806, 0.002309, 0.014012, -0.006605, 93.114120, -32.316879, -4.024155
1649446851.786878, 1.082927, -9.649082, 1.377863, 0.001060, 0.022120, -0.004865, 93.199310, -32.255005, -4.026459
1649446851.819990, 1.117793, -9.643246, 1.408539, 0.005153, 0.010658, -0.002182, 93.257568, -32.336899, -4.065720
1649446851.852590, 1.077540, -9.653870, 1.506701, 0.000919, 0.015630, -0.008797, 93.291199, -32.515747, -4.053528
1649446851.886834, 1.232266, -9.622296, 1.357961, 0.005450, -0.006937, -0.004034, 93.315552, -32.259613, -4.144836
1649446851.920172, 1.072004, -9.650877, 1.486799, -0.003023, 0.012288, -0.010372, 93.303452, -32.246933, -3.983780
1649446851.953518, 1.282394, -9.642198, 1.369633, 0.001695, -0.002093, 0.000865, 93.280319, -32.385941, -4.095978
1649446851.986826, 1.165527, -9.600898, 1.373374, 0.009586, -0.002385, 0.012948, 93.102768, -32.470352, -3.927719
1649446852.020174, 1.071555, -9.641001, 1.434576, 0.002812, 0.005743, 0.004308, 93.353119, -32.469452, -4.105713
1649446852.053319, 1.126472, -9.653122, 1.439364, 0.001010, 0.001731, 0.001721, 93.204468, -32.473633, -4.240875
1649446852.086894, 1.087716, -9.650728, 1.417367, -0.003148, 0.011947, -0.002597, 93.190231, -32.653519, -4.483719
1649446852.120171, 1.191714, -9.595661, 1.413178, 0.005395, 0.009882, 0.003076, 93.280624, -32.374451, -4.219391
1649446852.153517, 1.135450, -9.670629, 1.430685, 0.000565, 0.002527, 0.009067, 93.042603, -32.366058, -4.215530
1649446852.186841, 1.208473, -9.629778, 1.434276, 0.003174, 0.007646, 0.011702, 93.104065, -32.412521, -4.362274
1649446852.219969, 1.141735, -9.645790, 1.395969, -0.000366, -0.001930, 0.015221, 93.196884, -32.496216, -4.424240
1649446852.253501, 1.068712, -9.615712, 1.494131, 0.000149, 0.010488, 0.010438, 93.111542, -32.494232, -4.535797
1649446852.286855, 1.067215, -9.667786, 1.454328, -0.003245, -0.007809, 0.005808, 93.064194, -32.417175, -4.441772
1649446852.320202, 1.007211, -9.655815, 1.432331, -0.005458, 0.011943, -0.010078, 93.003525, -32.523346, -4.238602
1649446852.353506, 1.136049, -9.640403, 1.431134, -0.007626, 0.012944, -0.007873, 93.010498, -32.425690, -4.306442
1649446852.386845, 1.187524, -9.670031, 1.379210, 0.000277, 0.000471, -0.004594, 92.892990, -32.507614, -4.089279
1649446852.419979, 1.083227, -9.625439, 1.429937, -0.000793, 0.006652, 0.006135, 92.845154, -32.580261, -4.422897
1649446852.453520, 1.105972, -9.641300, 1.473781, -0.003402, 0.004033, 0.004524, 92.908783, -32.487305, -4.333878
1649446852.486848, 1.143082, -9.606884, 1.365892, -0.001296, 0.004499, 0.002782, 93.141586, -32.408173, -4.347092
1649446852.519996, 1.102829, -9.645790, 1.472883, -0.003429, 0.015669, 0.002435, 93.061676, -32.624069, -4.364136
1649446852.553507, 1.101333, -9.667337, 1.389385, 0.003674, 0.007052, 0.001558, 92.980545, -32.533020, -4.275894
1649446852.586636, 1.050007, -9.649531, 1.394174, 0.002564, 0.017723, -0.001700, 93.142441, -32.706940, -4.079636
1649446852.620177, 1.165527, -9.611971, 1.435474, 0.003984, -0.001751, -0.002431, 92.999496, -32.384827, -4.177414
1649446852.653530, 1.081431, -9.611523, 1.458218, -0.002534, 0.002641, 0.002256, 93.077805, -32.552567, -4.216705
1649446852.686838, 1.104774, -9.619902, 1.389535, -0.001255, 0.003465, -0.000013, 92.977478, -32.392746, -4.290329
1649446852.719831, 1.123479, -9.647136, 1.436072, 0.001730, 0.008247, 0.000439, 93.028061, -32.518234, -4.456818
1649446852.752931, 1.141735, -9.637111, 1.391630, 0.002121, 0.015210, -0.001104, 92.962158, -32.454346, -4.371506
1649446852.786782, 1.013645, -9.638008, 1.492485, -0.005809, 0.003715, 0.001537, 92.957214, -32.491821, -4.363251
1649446852.820177, 1.131111, -9.561544, 1.420809, -0.002628, -0.003274, 0.002016, 92.982224, -32.419022, -4.301132
1649446852.853341, 1.088464, -9.698761, 1.403152, -0.000165, 0.007632, -0.001418, 92.892487, -32.458771, -4.240463
1649446852.886660, 1.106869, -9.632023, 1.379359, 0.000035, 0.006775, -0.004830, 93.070236, -32.429459, -4.539413
1649446852.920168, 1.053299, -9.625439, 1.428889, -0.003153, 0.008597, -0.012014, 93.204498, -32.487122, -4.244705
1649446852.953508, 1.106420, -9.664345, 1.411232, -0.005198, 0.021449, -0.020784, 93.074432, -32.647369, -4.361267
1649446852.986841, 1.154304, -9.683498, 1.452831, -0.008965, 0.000037, -0.020288, 93.174454, -32.472488, -4.293274
1649446853.019983, 1.128417, -9.592519, 1.305289, -0.010229, -0.010628, -0.021564, 93.111526, -32.413284, -4.471191
1649446853.053508, 0.958130, -9.703250, 1.461361, -0.001868, 0.016321, -0.037222, 93.364578, -32.472916, -4.268585
1649446853.086844, 1.207276, -9.637410, 1.578677, -0.025991, 0.030422, -0.035831, 93.321335, -32.554871, -4.371628
1649446853.119933, 1.249474, -9.636811, 1.454777, -0.035580, -0.003287, -0.030381, 93.290634, -32.431458, -4.482361
1649446853.153507, 1.113603, -9.694721, 1.443255, -0.045801, 0.015678, -0.033013, 93.331650, -32.422958, -4.748383
1649446853.186907, 1.466149, -9.863812, 1.317409, -0.045595, -0.031510, -0.013055, 93.397446, -32.272339, -4.667999
1649446853.219692, 1.162983, -9.824906, 1.469741, -0.049314, -0.030420, 0.014162, 93.416367, -32.275116, -4.890686
1649446853.253510, 1.193958, -9.761908, 1.407791, -0.045235, -0.013871, 0.017013, 93.187653, -32.259323, -4.583694
1649446853.286846, 1.273266, -9.612121, 1.282993, -0.040596, -0.029170, 0.026901, 93.175919, -32.308838, -4.669754
1649446853.320179, 0.947655, -9.635165, 1.225682, -0.040600, 0.016876, 0.005857, 93.170639, -32.370789, -4.645355
1649446853.353512, 1.208473, -9.600599, 1.273865, -0.033227, 0.038652, -0.005633, 93.303696, -32.265472, -4.668732
1649446853.386666, 1.302745, -9.723751, 1.433379, -0.039528, -0.027055, 0.024532, 93.228836, -32.325394, -4.872772
1649446853.420184, 1.264288, -9.536404, 1.172261, -0.027611, -0.013959, 0.027015, 93.269882, -32.443100, -4.345428
1649446853.453315, 1.154304, -9.652074, 1.137844, -0.016958, -0.022005, 0.023520, 93.111801, -32.321991, -4.806198
1649446853.486697, 1.050306, -9.635016, 1.161786, -0.015251, 0.007379, 0.008463, 93.060226, -32.394211, -4.560669
1649446853.520162, 1.145177, -9.665242, 1.405396, -0.014234, -0.008260, 0.014220, 93.073578, -32.110031, -4.776688
1649446853.553509, 1.077989, -9.625888, 1.224335, -0.011458, -0.021424, 0.020260, 93.159149, -32.266479, -4.877396
1649446853.586847, 0.937629, -9.674221, 1.260098, -0.009587, 0.003362, -0.002615, 93.072845, -32.573593, -4.992111
1649446853.620175, 1.309179, -9.669432, 1.187823, -0.014486, -0.015059, -0.007780, 92.975693, -32.436401, -4.929916
1649446853.653501, 1.062277, -9.511415, 1.245434, -0.015803, -0.038775, -0.008977, 93.015945, -32.187225, -4.914886
1649446853.686844, 1.658733, -9.301473, 1.162535, 0.003264, -0.140495, 0.001668, 92.914352, -32.236267, -4.954193
1649446853.719552, 0.814477, -9.968408, 1.166874, 0.002400, -0.055805, 0.004533, 92.821625, -32.377075, -5.229446
1649446853.753505, 0.926107, -9.911396, 0.712125, 0.029465, 0.065347, 0.004556, 92.628876, -32.327988, -4.890350
1649446853.786845, 1.406593, -9.659107, 1.001973, 0.077356, 0.020508, 0.021330, 92.736221, -32.463333, -4.889404
1649446853.820182, 0.735918, -9.795427, 1.770362, 0.029711, 0.054070, -0.028464, 92.649643, -32.170853, -4.994232
1649446853.853499, 0.610821, -9.934441, 1.928230, -0.039425, 0.003682, -0.106947, 92.889053, -32.045944, -4.680298
1649446853.886845, 0.080505, -10.380211, 2.152537, -0.143551, 0.054112, -0.255004, 93.425598, -32.112808, -4.312820
1649446853.920164, -0.863858, -10.363900, 2.326117, -0.399345, 0.167058, -0.639084, 94.161636, -31.847931, -4.971039
1649446853.953338, -0.952443, -10.193912, 1.983596, -0.434647, 0.301295, -1.011032, 95.410416, -31.087372, -5.295975
1649446853.986848, 0.735319, -10.688614, 2.057517, -0.335876, 0.212898, -1.031215, 97.657898, -30.389557, -5.379074
1649446854.020182, 0.545130, -10.885687, 2.416498, -0.284366, 0.044045, -0.934336, 99.081680, -29.848694, -5.284927
1649446854.053527, -1.908328, -9.853786, 1.851915, -0.168500, 0.108048, -0.497870, 99.939575, -29.814072, -5.420242
1649446854.086655, -2.088642, -8.866926, 1.568501, -0.076991, 0.356510, -0.012287, 100.855240, -29.394028, -5.248352
1649446854.120182, -0.868497, -8.842535, 1.355118, 0.065993, 0.623706, 0.443885, 101.082642, -29.542358, -4.828888
1649446854.153544, -0.538695, -8.835352, 1.599327, 0.161936, 0.720217, 0.948391, 100.879227, -29.767059, -4.108673
1649446854.186864, 0.543783, -9.106196, 1.583615, 0.289118, 0.624309, 1.200672, 100.264236, -30.577621, -3.200760
1649446854.219466, 0.975039, -9.198672, 1.535880, 0.390540, 0.621675, 1.346938, 99.512848, -31.464127, -2.034149
1649446854.253506, 1.378013, -9.334843, 1.729661, 0.528223, 0.563569, 1.437298, 98.780807, -32.598373, -0.242355
1649446854.286844, 0.963666, -9.532963, 2.068890, 0.482167, 0.366787, 1.394789, 97.425308, -34.074539, 1.616989
1649446854.320178, 2.379986, -8.646959, 1.227627, 0.528102, 0.235438, 1.122418, 96.319092, -35.024719, 3.293137
1649446854.353315, 3.690063, -9.269750, 1.551742, 0.631789, -0.027721, 0.498913, 95.852966, -35.953156, 5.284332
1649446854.386850, 3.055750, -9.523835, 0.976685, 0.244826, -0.353660, 0.072801, 95.354645, -36.408951, 6.458893
1649446854.420185, 3.247884, -10.014048, -1.878102, -0.002470, 0.342289, -0.474946, 96.204910, -36.479614, 7.935471
1649446854.453328, 9.363573, -18.100165, -0.027833, 0.154426, 0.939360, -1.690990, 98.961273, -36.174973, 8.506348
1649446854.486850, -4.928763, -5.769577, 0.468665, 0.042322, 0.434655, -1.288956, 100.413101, -35.915894, 9.244934
1649446854.519990, 3.412186, -10.831069, 4.906467, 0.033442, 0.176955, -0.783112, 103.229034, -35.718109, 10.350845
1649446854.553512, 3.564966, -9.623194, 1.517176, 0.106411, -0.370355, -0.387003, 103.676041, -35.554260, 10.403748
1649446854.586850, -1.032649, -10.487950, 1.686715, 0.053645, -0.210682, -0.450790, 104.085068, -35.570496, 10.533615
1649446854.620168, 2.265813, -9.286210, 3.279158, -0.005507, -0.447010, -0.408060, 104.817810, -35.467850, 10.922104
1649446854.653377, 1.905336, -9.546131, 2.319682, -0.080011, -0.453496, -0.362508, 105.103470, -35.361694, 10.562241
1649446854.686850, 1.911620, -9.112032, 1.692252, -0.106599, -0.307535, -0.315559, 105.172134, -35.354614, 10.752090
1649446854.719469, 1.172261, -9.485528, 2.729091, -0.167889, -0.110645, -0.354628, 105.680679, -35.073776, 10.381775
1649446854.753518, 1.628057, -8.530092, 3.184139, -0.242004, 0.163425, -0.499993, 106.560852, -34.645187, 10.212875
1649446854.786732, 1.675941, -9.518298, 2.672378, -0.318182, -0.216979, -0.574669, 106.927246, -34.580887, 10.103058
1649446854.820182, 0.294936, -10.016292, 1.020229, -0.346467, -0.096370, -0.715117, 107.774673, -34.150223, 9.901764
1649446854.853514, 1.473332, -9.660005, 1.098789, -0.306636, -0.279370, -0.803378, 109.074066, -33.458466, 9.541565
1649446854.886856, 1.742680, -9.584737, 0.907253, -0.318108, -0.220732, -0.910846, 110.204010, -32.732239, 9.650894
1649446854.920046, 2.375048, -9.856779, 2.259977, -0.444433, -0.098891, -1.002154, 111.450058, -32.216553, 9.697266
1649446854.953516, 1.905036, -11.523891, 4.139275, -0.572767, 0.118107, -1.195602, 113.500916, -31.199265, 9.623657
1649446854.986667, 0.528670, -12.331934, 4.790349, -0.600265, -0.097867, -1.582930, 115.101898, -30.201904, 9.513763
1649446855.019658, -1.718289, -14.870985, 3.840299, -0.463070, -0.732841, -1.956264, 116.997223, -29.154358, 9.617218
1649446855.053572, 9.386019, -6.942886, 0.172981, -0.183373, -0.018931, -1.091746, 119.080780, -28.431534, 10.633896
1649446855.086847, -7.618499, -8.654740, 3.297714, 0.101406, 0.600209, 0.236794, 119.262680, -29.324463, 12.255371
1649446855.120184, 1.382352, -9.531167, 2.291101, 0.376709, 0.206863, 1.050511, 119.094345, -31.244186, 14.363220
1649446855.153517, -2.471115, -7.298574, 1.141436, 0.537911, 1.083322, 1.387943, 118.702698, -33.463181, 17.757797
1649446855.186852, 1.883040, -10.100838, 1.666364, 0.417417, 0.821832, 1.758149, 116.795181, -37.122314, 22.823883
1649446855.219475, 0.840066, -9.914838, 1.026364, 0.356488, 1.372759, 1.647943, 114.923477, -40.195923, 26.542923
1649446855.253519, 2.277035, -9.127894, 1.819144, 0.360786, 1.481176, 1.869855, 112.363800, -43.624588, 31.201035
1649446855.286552, 4.845415, -10.299407, 3.071611, 0.411399, 1.118171, 1.753318, 106.870590, -48.209213, 36.880920
1649446855.320172, 6.635829, -10.057742, 1.739388, 0.511877, 0.069326, 1.490672, 101.934601, -50.658264, 40.432922
1649446855.353243, 6.803124, -8.328530, 0.967407, 0.483276, -0.375093, 1.318264, 97.288635, -52.104019, 43.238434
1649446855.386836, 4.517709, -7.896227, -0.582090, 0.246305, -0.165221, 0.905107, 92.125046, -53.297302, 46.052887
1649446855.420006, 5.582829, -6.573580, 0.631022, 0.226815, -0.060996, 0.380828, 89.377609, -54.068314, 48.475815
1649446855.453519, 17.396718, -14.376283, -1.017087, -0.017296, 0.725504, -2.135278, 90.502457, -54.831757, 49.094299
1649446855.486690, -10.576386, -6.131999, -1.354819, -0.222231, -2.537651, -0.823665, 92.744888, -54.491623, 48.135025
1649446855.520201, 6.914604, -10.656891, -0.079906, 0.122327, 0.394565, -1.111972, 93.894104, -54.882309, 48.778198
1649446855.553516, 4.405032, -8.990227, 2.214487, 0.177714, -1.006058, -0.129170, 94.857498, -54.821350, 48.700302
1649446855.586846, 1.078289, -8.992921, 3.003227, 0.023715, -0.712018, -0.074875, 95.277267, -54.583786, 48.534760
1649446855.620189, 3.210624, -9.322123, 3.955969, 0.000295, -0.889259, -0.001539, 95.997696, -54.460175, 47.963058
1649446855.653524, 1.227777, -8.860342, 2.302623, -0.065092, -0.630178, -0.090115, 96.384872, -54.233643, 47.838196
1649446855.686672, 1.785476, -8.580370, 2.483236, -0.120272, -0.389275, -0.126223, 96.433578, -54.097229, 47.455170
1649446855.720182, 1.926883, -9.167548, 2.150442, -0.127360, -0.486932, -0.188016, 97.171967, -53.988434, 46.805801
1649446855.753521, -0.613664, -9.669582, 2.272247, -0.232150, -0.181497, -0.564243, 97.790253, -53.427048, 46.277023
1649446855.786886, 0.867449, -9.728090, 2.316540, -0.338849, -0.147548, -0.680114, 98.579773, -53.372086, 45.968918
1649446855.820210, 1.761684, -9.977686, 2.215235, -0.296212, -0.499820, -0.752568, 99.275574, -53.140976, 45.598953
1649446855.853523, 2.526332, -9.759065, 1.174805, -0.299734, -0.445850, -0.834782, 100.703873, -52.711609, 44.466202
1649446855.886853, 1.232565, -11.137676, 1.388038, -0.467323, -0.235900, -1.082337, 101.753876, -52.582993, 43.800644
1649446855.919991, 4.753089, -9.973945, 2.637512, -0.489738, -0.357415, -1.035563, 102.748230, -51.982040, 42.766876
1649446855.953524, 1.731906, -11.612028, 1.770063, -0.541896, -0.506466, -1.096448, 103.817368, -51.392197, 41.324509
1649446855.986479, 0.237774, -14.333487, 3.463811, -0.791964, -0.358072, -1.661188, 104.440781, -49.884354, 39.556625
1649446856.020175, -4.932804, -13.429825, 3.986196, -0.947912, 0.436634, -2.503489, 105.504501, -48.471603, 37.858383
1649446856.053521, 3.069217, -11.580454, 2.400786, -0.922543, 0.607733, -2.657064, 106.854980, -45.555252, 34.804016
1649446856.086862, 7.966556, -8.303391, 3.438971, -0.443108, 0.029402, -0.842378, 106.371384, -43.145615, 32.945908
1649446856.119369, -6.604555, -1.569998, 2.406472, 0.181068, 0.446023, 1.153331, 102.145203, -41.678375, 32.455734
1649446856.153507, -3.208380, -4.222474, 2.847604, 0.758950, -1.160182, 2.899591, 93.082733, -39.479797, 33.194946
1649446856.186852, -1.017087, -11.439047, 3.553594, 1.141624, -0.125888, 2.467250, 86.149719, -35.927704, 33.987656
1649446856.220028, 2.320281, -13.779977, 1.764527, 0.986357, 1.024557, 1.950041, 80.885590, -30.969650, 33.131760
1649446856.253473, 2.870797, -11.289858, 1.226131, 0.862545, 1.825099, 1.800294, 77.523758, -26.136673, 30.714539
1649446856.286842, 5.311387, -10.798897, 1.808370, 0.705790, 0.989700, 2.332777, 75.803162, -21.307693, 25.274628
1649446856.320244, 4.347122, -9.910199, 0.971747, 0.872360, 0.597281, 2.633533, 75.104889, -18.944565, 21.599838
1649446856.353577, 4.463091, -9.843311, 1.099836, 0.897535, 0.626890, 2.525032, 74.184448, -18.028229, 17.877548
1649446856.386857, 6.534674, -7.943363, 0.426018, 0.843500, 0.456210, 2.299851, 73.411026, -17.772263, 13.778137
1649446856.419515, 9.147796, -8.047959, -0.720206, 0.498051, 0.834891, 1.230814, 72.853439, -17.765274, 11.256653
1649446856.453391, 9.227104, -7.319523, -0.739659, 0.107718, 0.807136, -0.002730, 73.489014, -18.350327, 8.503845
1649446856.486659, 7.350498, -8.575432, 1.721431, -0.282622, 0.865166, -1.065769, 75.474976, -18.928360, 4.893661
1649446856.520199, 9.283816, -18.326417, 4.535815, -0.723323, -1.419938, -1.306833, 76.990280, -19.701202, 3.661224
1649446856.553533, -2.634370, -11.638065, -3.447052, -0.268906, 0.174712, -1.940197, 77.906021, -20.094666, 3.129425
1649446856.586877, 8.080431, -9.024045, 5.967697, -0.170223, 0.456742, -1.333438, 80.172699, -20.359375, 1.603561
1649446856.620203, 10.941502, -9.111284, 1.799991, 0.000748, -1.722933, -0.389106, 80.153412, -20.616333, 1.860641
1649446856.653526, -3.467403, -10.766276, 0.791134, -0.170077, 0.030567, -0.642807, 80.237961, -20.920319, 2.167999
1649446856.686857, 4.824017, -8.946084, 2.677615, -0.183215, 0.223088, -0.693578, 81.186874, -20.901962, 1.860901
1649446856.720179, 2.034024, -8.099734, 2.611775, -0.086994, -0.808314, -0.627485, 81.490967, -20.937393, 1.647369
1649446856.752712, -0.245406, -9.229797, 1.692701, -0.114374, -0.307917, -0.870719, 82.030884, -21.113327, 1.473511
1649446856.786023, 2.609979, -9.271995, 2.393304, -0.115854, -0.649183, -0.942178, 82.673706, -21.360214, 1.199570
1649446856.819346, 2.848202, -8.658181, 1.934066, -0.149076, -0.493215, -0.933832, 83.404037, -21.063385, 0.943893
1649446856.852693, 4.322282, -8.826524, 1.790414, -0.184562, -0.426801, -0.791128, 84.057281, -21.066315, 0.178482
1649446856.886013, 2.399140, -9.870695, 2.052878, -0.206059, -0.285187, -0.839087, 84.678192, -21.090424, 0.177841
1649446856.919389, 2.056021, -10.499921, 3.875165, -0.420007, 0.317521, -0.947186, 85.778427, -20.807480, -0.633041
1649446856.952690, 5.090073, -9.623793, 2.286014, -0.436099, 0.166246, -0.925034, 88.045044, -20.397461, -1.172897
1649446856.986030, 3.478925, -10.044574, -0.211288, -0.327655, 0.054842, -0.951547, 89.407822, -20.112747, -1.544113
1649446857.019364, 1.390283, -13.647548, 2.196081, -0.360746, -0.160125, -1.216180, 91.036240, -19.600830, -2.080688
1649446857.053527, 2.047791, -13.693038, 3.790321, -0.344302, -0.491532, -1.643332, 93.298553, -18.556915, -2.138474
1649446857.086031, -1.403750, -13.313856, 3.693056, -0.471246, -0.703877, -1.903618, 95.375519, -17.630646, -2.610001
1649446857.119356, 5.159205, -12.081441, 3.201048, -0.624598, -0.503122, -2.040401, 98.219406, -15.792633, -3.712952
1649446857.152690, -6.204873, -6.832154, 3.375974, -0.069876, -1.356396, -0.317768, 100.542130, -14.514297, -4.783340
1649446857.186065, -6.858939, -2.706495, 1.796848, 0.659618, -0.158622, 2.186901, 100.764648, -14.994507, -6.105194
1649446857.219365, -5.151125, -11.217882, 5.156811, 0.682107, -0.072653, 3.004734, 101.689346, -15.831467, -7.950470
1649446857.253291, 3.749918, -13.499706, 3.491195, 0.891902, 0.094490, 2.830070, 104.392944, -19.156586, -10.244583
1649446857.286050, 2.975693, -10.433632, 1.101782, 1.022950, 0.497392, 2.759491, 106.793137, -23.717209, -11.332504
1649446857.319356, 2.749890, -10.292074, 0.855329, 0.947984, 1.034596, 2.724222, 109.609451, -30.265991, -11.342316
1649446857.352712, 4.271405, -10.423606, 1.067664, 0.859738, 0.790211, 2.825542, 111.287674, -37.986511, -10.656860
1649446857.385879, 4.656273, -9.774478, 1.447893, 0.891922, 0.223408, 3.164187, 108.713120, -49.425049, -8.411865
1649446857.419391, 3.308936, -9.210344, 1.424251, 0.997284, 0.295342, 2.944797, 103.612793, -58.313202, -5.305786
1649446857.452703, 5.561730, -11.395801, -0.789039, 0.580298, 1.151200, 2.107417, 98.405167, -65.509216, -2.002594
1649446857.486023, 9.363274, -10.280702, -0.411503, 0.194500, 1.602311, 0.437875, 94.094955, -71.428986, 1.118774
1649446857.519357, 13.955353, -7.329848, 2.073528, -0.130449, 0.002018, -0.800253, 93.457016, -74.214874, 2.317184
1649446857.552701, 10.281600, -11.245864, 4.416255, -0.220207, 0.859742, -2.108050, 97.018982, -76.355530, 2.432251
1649446857.586015, -14.866197, -24.124574, -1.807772, -0.538740, -0.029420, -1.778302, 98.443222, -77.099670, 1.901016
1649446857.619382, 5.488109, -9.169942, -0.588674, -0.196848, 0.326041, -1.878114, 102.854843, -75.896362, 2.179321
1649446857.652691, 6.978200, -9.010578, 6.772748, -0.068978, -0.563497, -0.995560, 104.757126, -75.566818, 2.201294
1649446857.686092, -0.402376, -9.791537, 2.047791, -0.042545, -0.789683, -0.697041, 105.328796, -75.041061, 2.169250
1649446857.719362, -2.149544, -10.328137, 2.283171, -0.256327, 0.331411, -0.979849, 107.962555, -74.102173, 2.132660
1649446857.752692, 3.076549, -7.945308, 2.551022, -0.101088, -0.585715, -0.808661, 109.342514, -73.245529, 1.895905
1649446857.786036, 0.629974, -9.271995, 1.819743, -0.125794, -0.416728, -0.837754, 110.560989, -72.668030, 1.823441
1649446857.819360, 1.015590, -9.034071, 2.477699, -0.177764, -0.265731, -0.928937, 112.649796, -71.781647, 1.218933
1649446857.852694, 1.808520, -9.251046, 1.852065, -0.256956, -0.194493, -0.992367, 114.198532, -70.878113, 1.326218
1649446857.886079, 2.322825, -9.560795, 2.371008, -0.265726, -0.251034, -1.064089, 115.998535, -69.815262, 0.809402
1649446857.919361, 3.226785, -10.237157, 1.634192, -0.284512, -0.099591, -1.037238, 118.317123, -68.360291, 0.720444
1649446857.952706, 3.250727, -8.300996, 1.345691, -0.261738, -0.233930, -0.999216, 119.984909, -67.096222, 0.226791
1649446857.986055, 3.124732, -9.861567, 2.249502, -0.276393, -0.344917, -1.034396, 121.365311, -65.906754, -0.155945
1649446858.019349, 2.120514, -10.474782, 1.983746, -0.345540, -0.664529, -1.151085, 122.644180, -64.459015, -0.830322
1649446858.053531, 1.489493, -11.425879, 2.057966, -0.490932, -0.518452, -1.412289, 124.669357, -61.990479, -1.746262
1649446858.086027, 2.430414, -11.275942, 2.390760, -0.538596, -0.699974, -1.644455, 126.177200, -59.465744, -2.380875
1649446858.119385, 1.099387, -13.160777, 2.903867, -0.696840, -0.676562, -1.914760, 128.072311, -56.022873, -3.294144
1649446858.152710, -0.319027, -15.465645, 4.437802, -0.809925, -0.573916, -2.300101, 130.698700, -50.677811, -3.990692
1649446858.186028, 2.288109, -10.979210, 1.967585, -0.914257, 0.393394, -2.523517, 133.675903, -46.048813, -3.328979
1649446858.219371, 12.993931, -6.288969, 2.114529, -0.378646, -0.023681, -1.328417, 135.434921, -42.301331, -2.067291
1649446858.253015, -4.115633, -4.581155, 2.095824, 0.250832, -1.120187, 1.123270, 130.529724, -43.579773, -2.599030
1649446858.286016, -2.593369, -7.609820, 1.504307, 0.427534, -0.701141, 1.697156, 126.217911, -45.506287, -0.670944
1649446858.319434, 1.426346, -9.176825, 1.086519, 0.539233, 0.460201, 1.935413, 123.056534, -48.082550, 2.649826
1649446858.352692, 1.579874, -8.829068, 1.087267, 0.699265, 1.117574, 2.286180, 118.657135, -51.392532, 8.082504
1649446858.386054, 2.548328, -7.194426, 1.006762, 0.939926, 1.337163, 2.788762, 114.429855, -54.238785, 13.168655
1649446858.419397, 3.651606, -9.100660, 0.921618, 1.094663, 1.076556, 3.155485, 108.509338, -57.198807, 17.714096
1649446858.452703, 4.227562, -9.895834, 1.091606, 1.300937, 0.938813, 3.357087, 101.450073, -59.669998, 22.632523
1649446858.486042, 4.167856, -9.349507, 0.612916, 1.491211, 1.370022, 3.470538, 90.571472, -62.103409, 28.945938
1649446858.519353, 4.976049, -14.118009, 1.118990, 1.454318, 1.075115, 3.469763, 80.817032, -61.850189, 32.406509
1649446858.552682, 10.457125, -10.593445, 1.694047, 1.045686, -0.301985, 2.571900, 71.450119, -60.437256, 35.338120
1649446858.586073, 10.683826, -10.647314, -0.835427, 0.395631, -0.100804, 0.479491, 65.028671, -58.296219, 37.053879
1649446858.619361, 7.240515, -6.553379, -1.141885, -0.337706, 1.388279, -0.838187, 64.511169, -58.255661, 36.224503
1649446858.652704, 10.547955, -16.468067, 10.983250, -0.399865, 1.469108, -1.681685, 66.606583, -59.203781, 34.052414
1649446858.686030, 2.827552, -15.208119, -5.949441, -0.323177, 0.726363, -2.012287, 70.612839, -60.112869, 32.028214
1649446858.719371, 3.035698, -6.345981, 2.586785, -0.057844, 1.089128, -1.576540, 73.344452, -60.877625, 30.805222
1649446858.752710, 11.887211, -8.315362, 4.771794, -0.036700, -1.270583, -0.460875, 74.632736, -61.175140, 30.345154
1649446858.786031, -4.670489, -10.922647, -0.327856, 0.006478, -0.327643, -0.602361, 75.673538, -61.122513, 30.977295
1649446858.820202, 4.036325, -8.512434, 3.383605, 0.006736, -0.447158, -0.591380, 76.985489, -61.258865, 30.577026
1649446858.853543, 0.481085, -9.152734, 3.158401, -0.000879, -1.093740, -0.562935, 77.971436, -61.418091, 30.843246
1649446858.886917, -0.514903, -9.479243, 2.348562, -0.228007, -0.234247, -0.872521, 79.204987, -61.408188, 30.559860
1649446858.920239, 1.475576, -9.031378, 3.191172, -0.276032, -0.324883, -0.931627, 81.515793, -61.576965, 29.237106
1649446858.953545, 2.098667, -9.641450, 3.074454, -0.360332, -0.236894, -0.974249, 83.061661, -61.469986, 28.382538
1649446858.986880, 2.013524, -8.930821, 1.407192, -0.339929, -0.250011, -0.992769, 84.661987, -61.390030, 27.382507
1649446859.020188, 2.406771, -10.197803, 1.813907, -0.364627, -0.325404, -1.006275, 86.982224, -61.170227, 26.577866
1649446859.053535, 3.883245, -9.465327, 1.824980, -0.357151, -0.397612, -0.950567, 88.367371, -61.145294, 25.357559
1649446859.086858, 2.682853, -9.464279, 2.342277, -0.396612, -0.541809, -1.018614, 90.016464, -60.739685, 24.076233
1649446859.120198, 1.717989, -9.848698, 2.163460, -0.545196, -0.401014, -1.208331, 92.418427, -60.194794, 22.520676
1649446859.153496, 2.239626, -11.419294, 1.986888, -0.691409, -0.235771, -1.418363, 94.465637, -59.386200, 20.148834
1649446859.186882, 1.757194, -12.691214, 2.643498, -0.775409, -0.519281, -1.693181, 96.515503, -58.408890, 18.019913
1649446859.220226, 0.029628, -15.016134, 3.934571, -0.895859, -0.553829, -2.165135, 99.783066, -56.452454, 14.313644
1649446859.252736, -1.631948, -14.675109, 4.023157, -0.942507, -0.511875, -2.474205, 102.516617, -54.406677, 11.325058
1649446859.286868, 6.827814, -13.335703, 3.076399, -1.074858, -0.293441, -2.526685, 104.741425, -51.649765, 7.968277
1649446859.320217, 3.717597, -8.537424, 2.671331, -0.176360, -1.300069, -0.628068, 104.892212, -49.466354, 5.684204
1649446859.353198, -4.509628, -2.465728, 1.961450, 0.300116, 0.413231, 0.748729, 101.243011, -48.351440, 4.153503
1649446859.386869, 0.362572, -4.780024, 0.845452, 0.729663, 0.338906, 1.869032, 96.414093, -48.288437, 4.434357
1649446859.420223, 2.050035, -5.597793, 1.341351, 0.981346, -0.096361, 3.093995, 89.442337, -47.634842, 5.144501
1649446859.453530, 1.883788, -7.499986, 0.922665, 1.251419, 0.437844, 3.465625, 79.804962, -45.462112, 6.028564
1649446859.486870, 2.970007, -9.341427, 0.761805, 1.390051, 0.895927, 3.568877, 73.289688, -42.317169, 7.391937
1649446859.520212, 4.078971, -10.837354, 0.896329, 1.418350, 1.654090, 3.503989, 68.502289, -38.139694, 7.354996
1649446859.553525, 3.339313, -11.536461, 0.554407, 1.200792, 1.889967, 3.394089, 65.616928, -32.418030, 6.731796
1649446859.586872, 4.355651, -11.299884, 1.540070, 1.011639, 2.477675, 3.221375, 65.840912, -28.688568, 5.703384
1649446859.620188, 6.950667, -11.103709, 2.233641, 1.240791, 2.237367, 2.502738, 67.672150, -26.489532, 4.613342
1649446859.653542, 12.696900, -10.951078, 2.564190, 0.785486, 0.399869, 1.699459, 69.078171, -25.613205, 5.075607
1649446859.686447, 7.419032, -9.858275, 0.789787, 0.090044, -0.254474, 0.411261, 70.101440, -25.182480, 6.063660
1649446859.720219, 5.640290, -8.852860, 0.706589, -0.144140, -0.127852, -0.892743, 71.871429, -25.522110, 6.456635
1649446859.753138, 6.986430, -14.683938, 4.357597, -0.254980, 0.034946, -1.116109, 74.675064, -26.264572, 6.002960
1649446859.786210, -7.208043, -20.209755, -1.122881, -0.717195, -0.548263, -2.013138, 76.879333, -27.042786, 5.458374
1649446859.820013, 4.250157, -7.221511, -2.058265, 0.335357, 0.910678, -1.570442, 79.449097, -27.834122, 5.408569
1649446859.853530, 3.506907, -9.983222, 7.704840, -0.066852, -0.843906, -0.550472, 80.814484, -28.336777, 5.610077
1649446859.886875, -0.884658, -10.290728, -0.075417, -0.002869, -0.704587, -0.690922, 81.235046, -28.625061, 6.180969
1649446859.920251, 3.381511, -8.881740, 2.738219, -0.111738, -0.311830, -0.749813, 81.863464, -28.796143, 5.770233
1649446859.953545, 1.173308, -8.724620, 3.644573, -0.118133, -0.926151, -0.648910, 82.033905, -29.265060, 5.717911
1649446859.986885, 0.544382, -9.075072, 2.397344, -0.210081, -0.451966, -0.748324, 82.796829, -29.543060, 5.835266
1649446860.020219, 2.712331, -9.091233, 2.667889, -0.196021, -0.477279, -0.704691, 83.886551, -29.604858, 5.743790
1649446860.053525, 0.942418, -9.494656, 1.868974, -0.247026, -0.276726, -0.811236, 84.527435, -29.724960, 5.632965
1649446860.086881, 1.623568, -9.247903, 1.937508, -0.292767, -0.233396, -0.871939, 85.422821, -29.578659, 5.184860
1649446860.120203, 2.524536, -9.507076, 2.323273, -0.329140, -0.276191, -0.867263, 86.992096, -29.695282, 4.802887
1649446860.153561, 3.417274, -9.364172, 2.302773, -0.298474, -0.535877, -0.825142, 87.701859, -29.846954, 4.560974
1649446860.186886, 2.604592, -9.680057, 0.774674, -0.314003, -0.788702, -0.927821, 88.061386, -29.635086, 4.384598
1649446860.220216, 1.595436, -9.879972, 2.383877, -0.484177, -0.138332, -1.052463, 89.845016, -29.448502, 3.453995
1649446860.253541, 3.514089, -9.994744, 2.245911, -0.522394, -0.261835, -1.122773, 91.418045, -29.003235, 2.770752
1649446860.286888, 1.545308, -11.023353, 2.129942, -0.666139, -0.210496, -1.402554, 92.788971, -28.812271, 1.815338
1649446860.320192, 1.147421, -14.111125, 2.923320, -0.797936, -0.506025, -1.701763, 95.308365, -27.800705, 0.627075
1649446860.353579, -1.418415, -18.154633, 4.315100, -0.936668, -0.823766, -2.066034, 97.870377, -27.149551, -0.475433
1649446860.386886, -0.209642, -17.504457, 3.692757, -1.103210, -1.223313, -2.180817, 100.376190, -25.934265, -2.197479
1649446860.420227, -1.270274, -12.778303, 2.440739, -1.148082, -0.024432, -2.589808, 103.617630, -24.538101, -3.614761
1649446860.453543, 6.501904, -7.920618, 2.132635, -0.593672, -0.008451, -1.553478, 108.864899, -22.649857, -4.391846
1649446860.486878, -2.242020, -1.603068, 6.178237, -0.200392, 0.145918, 0.499850, 111.043686, -23.158188, -4.042404
1649446860.520224, 3.929035, -2.953547, 3.318663, 0.107563, 0.517498, 1.707227, 112.349838, -24.723572, -3.309875
1649446860.553558, 1.583914, -3.061136, 0.927005, 0.451696, -0.831104, 3.126368, 110.129944, -28.764771, -1.984589
1649446860.586867, 2.480243, -3.784934, 0.663194, 1.153103, -1.323940, 3.990104, 105.903946, -33.306137, 0.181503
1649446860.620220, -0.441132, -6.543203, -0.261716, 2.177254, 1.035663, 4.038111, 101.381638, -38.494385, 3.853699
1649446860.653540, 1.328932, -11.073482, 1.091157, 2.317991, 2.762525, 3.791007, 96.407303, -44.277222, 12.163681
1649446860.686879, 5.916372, -14.792126, 3.542521, 2.122702, 2.819165, 3.719181, 90.970444, -47.068024, 18.539902
1649446860.720223, 6.298097, -12.527959, 3.661483, 1.770069, 1.365194, 3.634841, 83.881714, -47.403275, 23.639450
1649446860.753051, 5.110723, -13.250260, 3.061436, 1.695586, 0.807409, 3.146800, 77.278732, -45.833740, 27.639297
1649446860.786886, 4.688146, -11.854590, 2.626589, 1.274669, 0.077487, 2.316745, 71.251297, -42.180054, 31.660172
1649446860.820229, 3.706075, -9.134478, 0.511461, 0.353178, -0.595825, 0.178875, 70.111389, -40.283325, 33.071457
1649446860.853526, 2.547730, -9.553014, -0.341922, -0.235094, -0.125919, -1.101465, 71.489777, -39.647491, 32.682678
1649446860.886740, 2.970456, -9.321824, 0.192434, -0.372862, 0.338983, -1.692943, 75.261810, -39.516052, 31.830994
1649446860.919568, -0.284461, -11.743858, 2.520795, -0.565862, 1.568041, -1.371126, 78.491852, -39.849609, 30.118210
1649446860.953207, -5.125088, -18.800618, -0.380080, -0.838821, -0.105408, -2.135063, 81.563904, -39.876480, 28.378265
1649446860.986425, 3.009362, -8.743624, 0.902913, -0.134857, 1.001701, -2.248375, 86.661118, -40.189117, 26.532852
1649446861.020195, 7.032967, -7.304111, 6.694487, -0.435294, 0.309203, -1.190778, 89.638412, -40.069809, 25.557175
1649446861.053542, 10.122385, -9.920973, 1.727117, -0.196282, -1.467217, -0.425234, 91.014847, -40.054565, 24.912903
1649446861.086862, -4.990863, -11.327417, -1.189320, -0.122465, 0.200346, -0.707625, 92.292648, -39.826050, 24.014572
1649446861.120208, 5.319018, -7.947552, 3.296217, -0.005613, -0.444930, -0.587083, 93.453476, -39.753494, 23.872391
1649446861.153587, 1.072602, -8.661324, 3.630807, -0.032401, -0.974366, -0.508533, 93.971298, -39.655838, 23.799011
1649446861.186873, 0.306907, -9.034221, 3.067721, -0.199681, -0.325624, -0.744511, 95.156982, -39.649826, 23.358795
1649446861.220210, 1.458667, -10.076596, 3.047071, -0.301935, -0.533097, -0.833841, 97.193542, -39.069763, 22.551086
1649446861.252967, 0.737713, -9.513510, 2.808399, -0.451823, -0.396892, -1.023542, 98.736572, -38.571182, 21.549500
1649446861.286112, 1.946935, -9.402778, 2.951751, -0.513474, -0.446719, -1.112345, 100.525604, -38.058182, 20.641068
1649446861.320034, 2.644396, -8.857948, 0.390105, -0.523088, -0.249336, -1.163381, 103.001740, -37.067749, 18.828903
1649446861.353599, 3.085378, -9.506178, 1.844134, -0.534410, -0.137276, -1.157426, 104.932739, -36.358856, 18.266068
1649446861.386417, 2.446724, -10.070012, 2.896385, -0.598067, -0.243941, -1.252855, 106.873245, -35.600677, 16.712875
1649446861.420216, 1.340603, -11.408521, 2.835034, -0.704885, -0.323195, -1.556081, 110.185669, -34.020798, 14.904099
1649446861.453543, 2.614319, -13.988273, 2.297835, -0.767457, -0.908964, -1.818995, 112.510239, -32.413422, 12.694931
1649446861.486881, -0.011223, -16.646735, 2.943521, -0.678734, -1.251980, -1.995788, 115.351166, -30.805740, 10.211014
1649446861.520212, 3.773112, -11.433360, 3.888782, -0.530402, -1.907478, -1.738364, 117.861267, -29.263870, 7.233551
1649446861.553555, 6.971766, -8.894758, 2.348562, -0.431152, -2.113087, -1.470860, 119.699600, -27.926834, 3.088623
1649446861.586952, 2.229301, -6.615628, 4.321833, 0.193501, -2.937773, -0.204283, 119.495239, -27.881775, 0.386169
1649446861.620214, -0.042946, -5.075408, 0.810437, 0.504472, -2.085915, 0.413667, 118.678970, -29.539597, -1.936401
1649446861.653533, -2.055422, -4.237737, 0.973991, 0.930921, -0.820805, 1.025088, 118.456787, -33.326538, -2.728317
1649446861.686896, -1.342848, -4.869956, 0.090830, 1.415919, 1.058204, 1.647247, 119.576355, -37.615509, -1.019409
1649446861.720200, 1.223886, -6.725612, 0.710479, 1.576130, 1.462506, 2.160081, 120.856628, -43.466339, 1.515778
1649446861.753311, 2.996343, -7.724143, 1.267879, 1.549961, 1.299328, 2.781832, 120.402054, -52.822708, 7.245483
1649446861.786836, 2.578854, -9.141960, 1.255160, 1.711084, 1.213644, 3.568384, 117.402100, -61.664246, 12.361755
1649446861.820234, 2.036269, -11.238083, 1.504456, 1.957040, 1.374600, 3.762475, 111.542633, -70.963242, 20.021637
1649446861.853723, 2.235885, -13.348572, 1.904737, 2.039436, 1.955810, 3.386623, 100.346954, -81.482361, 32.326294
1649446861.887071, 3.825934, -14.870237, 1.482460, 1.602028, 1.603228, 3.022233, 89.138962, -86.104904, 42.195328
1649446861.920423, 4.134936, -10.600926, 2.593519, 1.198189, -0.023162, 2.478811, 77.680191, -87.607941, 51.015091
1649446861.953565, 5.870732, -10.901099, -0.918027, 0.817483, -0.216660, 1.318074, 69.424820, -86.986694, 58.941360
1649446861.986880, 2.534711, -9.034221, -1.699584, -0.107887, 0.122353, -0.169128, 64.292038, -86.989609, 65.784622
1649446862.020364, 6.636577, -10.020183, -0.410306, -0.682416, -0.095325, -1.942319, 65.608047, -88.792664, 67.360947
1649446862.053549, -11.547534, -17.853412, 3.371634, -0.714679, -1.072883, -0.548328, 67.643051, -90.314285, 68.218246
1649446862.086879, 8.138041, -13.081170, -5.645079, -0.997694, 0.690354, -2.048170, 71.903366, -91.280472, 65.316254
1649446862.120217, 3.939958, -7.907749, -0.092925, -0.192415, 1.404849, -1.635296, 74.688766, -92.242065, 64.685242
1649446862.153604, 10.501567, -9.596260, 4.673781, -0.252592, -0.547867, -0.610587, 76.243454, -92.466995, 63.838486
1649446862.186866, -0.495600, -9.940875, 1.601721, 0.030789, -2.298892, -0.131191, 79.557480, -91.545151, 65.343292
1649446862.220201, -4.540603, -10.565313, 1.486799, -0.185281, 0.274093, -0.549429, 80.594864, -91.321930, 64.765427
1649446862.253555, 5.643582, -8.511088, 4.332757, -0.151262, -1.244178, -0.361312, 82.083069, -91.098679, 64.571106
1649446862.286686, -3.001581, -9.550919, 3.338265, -0.336337, -0.767162, -0.590623, 84.128296, -90.693939, 64.036392
1649446862.320308, -0.401478, -9.465177, 2.060959, -0.509323, -0.135253, -1.018452, 86.789444, -90.628296, 62.976410
1649446862.353577, 0.423474, -9.351303, 3.170073, -0.585016, -0.232608, -1.129383, 89.183990, -90.384323, 62.052261
1649446862.386962, 1.561618, -9.421782, 2.168997, -0.649175, -0.029516, -1.230362, 91.805618, -90.419052, 60.599365
1649446862.420214, 3.334973, -9.081207, 1.742979, -0.629882, -0.198246, -1.148869, 95.284210, -89.941635, 59.244904
1649446862.453615, 2.086397, -9.824607, 1.564611, -0.680849, -0.135355, -1.155559, 97.567886, -89.553452, 57.542023
1649446862.486910, 2.278382, -9.766697, 2.754080, -0.786692, -0.274883, -1.282668, 99.921005, -89.049454, 55.928070
1649446862.520222, 0.656011, -10.926388, 3.168427, -0.993819, -0.326067, -1.573858, 103.914230, -87.692871, 52.997330
1649446862.553556, 1.616236, -12.670564, 3.071461, -1.323211, -0.399139, -2.045714, 107.106689, -86.079224, 50.451752
1649446862.587090, -0.599748, -18.308310, 5.021090, -1.431883, -0.697144, -2.416672, 110.448792, -83.084961, 46.861542
1649446862.620221, 0.737564, -14.608670, 3.874267, -1.274493, -0.554961, -2.532147, 113.048737, -78.514771, 43.888535
1649446862.653754, 4.685902, -9.683349, 1.134403, -0.909585, -0.229502, -2.164728, 113.777161, -71.607910, 40.680618
1649446862.687071, -1.750760, -6.717382, 2.856432, -0.355614, -0.155359, -0.347399, 110.868546, -66.511688, 39.637741
1649446862.720234, 0.427664, -1.918953, 1.483806, 0.218590, 0.552255, 0.378097, 105.659164, -62.654922, 40.013733
1649446862.753557, 0.726042, -3.007417, 1.216105, 0.982078, -0.506661, 2.062694, 95.309738, -57.253952, 43.172333
1649446862.786557, 2.975244, -5.292981, 1.086818, 1.310287, -0.991376, 2.743118, 86.683090, -51.962692, 46.360260
1649446862.820234, 1.551742, -7.917475, 0.665588, 1.606804, -0.966995, 2.996749, 78.251434, -44.652405, 49.754791
1649446862.853620, 1.564162, -10.144831, 0.381726, 1.762719, 0.599313, 2.908642, 68.859482, -31.541016, 51.378601
1649446862.886950, 2.206556, -11.087997, 0.559196, 1.747669, 1.437392, 2.620750, 63.946518, -20.943237, 48.973755
1649446862.920268, 2.893542, -11.713183, 1.285537, 1.593172, 1.644369, 2.495263, 61.973953, -10.752777, 44.561584
1649446862.953580, 4.645050, -11.072285, 1.427992, 1.404525, 1.510839, 2.418061, 64.209335, -0.873505, 36.552139
1649446862.987026, 4.088997, -10.683227, 1.206378, 1.302617, 1.203551, 2.355165, 68.051697, 3.685760, 29.980682
1649446863.020406, 3.309984, -9.382427, 0.623241, 1.211004, 1.341147, 1.910647, 73.167648, 5.179047, 24.738770
1649446863.053738, 3.140444, -11.150845, 0.670077, 0.864990, 1.192527, 1.382390, 78.449799, 4.610809, 20.360992
1649446863.086884, 4.970363, -9.823409, -0.896329, 0.367376, 0.819820, 0.358053, 84.624191, 2.001846, 16.693192
1649446863.120070, 4.469226, -10.499173, 0.089932, -0.239926, 0.969686, -0.824186, 88.666855, -0.435135, 15.131897
1649446863.153578, 11.721862, -13.593379, 2.417844, -0.403986, 1.084672, -2.073438, 92.373230, -2.066650, 14.062012
1649446863.186890, -11.593622, -20.533571, 0.530765, -0.786523, -0.793833, -2.343693, 94.890396, -4.004486, 13.309204
1649446863.220221, 5.979968, -7.684190, -0.382324, -0.224401, 0.737548, -1.912607, 96.625900, -5.581619, 12.639923
1649446863.252576, 7.006482, -9.505430, 4.621108, -0.322609, 0.501369, -1.228631, 98.544418, -6.483353, 13.096817
1649446863.286463, 5.042937, -9.454553, 2.341529, -0.061521, -1.190733, -0.680754, 98.996323, -6.977112, 12.748703
1649446863.320289, -3.208230, -10.341904, 1.147122, -0.252218, 0.238711, -0.816978, 99.656708, -7.595306, 12.993271
1649446863.353611, 5.191976, -8.352771, 3.387945, -0.134739, -0.793986, -0.575246, 100.255020, -7.786499, 12.510071
1649446863.386887, 0.418985, -9.493010, 2.576460, -0.108818, -1.075929, -0.523978, 99.895721, -8.401855, 12.300369
1649446863.420425, 1.305588, -9.105598, 1.487398, -0.167991, -0.865593, -0.654211, 99.903885, -8.600357, 11.900482
1649446863.453580, 1.276259, -8.895058, 3.306692, -0.329603, -0.412193, -0.897360, 100.405334, -8.743942, 11.632095
1649446863.487022, 1.091606, -8.960150, 2.889502, -0.414497, -0.310869, -1.020866, 101.373138, -8.984268, 11.336792
1649446863.520223, 1.985691, -9.785401, 1.583615, -0.501394, 0.071139, -1.117036, 102.929260, -9.018387, 10.758942
1649446863.553738, 2.808698, -9.081506, 1.039981, -0.500164, -0.124881, -1.131345, 103.852203, -9.062668, 10.357635
1649446863.586905, 2.557007, -10.043077, 3.470994, -0.566496, 0.000049, -1.189305, 105.122360, -9.352478, 10.106216
1649446863.620334, 3.794959, -10.161890, 1.256208, -0.495095, -0.465398, -1.257819, 106.735764, -9.358490, 9.418350
1649446863.653579, 0.954538, -12.302605, 2.107646, -0.661929, -0.400346, -1.596757, 107.981018, -9.423401, 9.098083
1649446863.686960, 0.749235, -11.401188, 3.073856, -0.705047, -0.655636, -1.991960, 109.316864, -9.323959, 8.268646
1649446863.720408, 4.997896, -12.678495, 1.719635, -0.722393, -1.173195, -2.042739, 111.402802, -9.219421, 7.209488
1649446863.753586, 2.352004, -14.581736, 4.156035, -0.662409, -1.506334, -1.975242, 112.535416, -9.665710, 6.371490
1649446863.786305, 1.960702, -12.229732, 4.129100, -0.732575, -0.996841, -1.839082, 113.493134, -10.283020, 5.180466
1649446863.820251, 10.693552, -9.783606, 1.157597, -0.029818, -0.784496, -1.069716, 115.679001, -10.807434, 4.560791
1649446863.853724, -2.311901, -4.059369, 1.525256, 0.330313, -1.444219, 0.474627, 115.438126, -13.318573, 4.094498
1649446863.886908, -4.144812, -2.024148, 1.008557, 0.805087, -0.346926, 1.586191, 115.010666, -16.468582, 4.662552
1649446863.920245, -3.303100, -4.932504, 0.057311, 1.312759, 0.212828, 2.567969, 114.110626, -20.593506, 5.972580
1649446863.953628, 1.630601, -8.961497, 1.521814, 1.394103, -0.053740, 3.316597, 111.593414, -26.919815, 8.117493
1649446863.986893, 3.289932, -10.416423, 0.881964, 1.494074, 0.181771, 3.550807, 108.326477, -31.649780, 10.484375
1649446864.020367, 2.869600, -10.915764, 1.136947, 1.586596, 0.844274, 3.512838, 104.295349, -35.781601, 13.324051
1649446864.053694, 5.089474, -11.425729, 2.466327, 1.718093, 0.994783, 3.612086, 98.283554, -39.990387, 17.539246
1649446864.086875, 4.599710, -11.458948, 2.475006, 1.631442, 0.965099, 3.670406, 92.926895, -42.258942, 20.390335
1649446864.120226, 3.527407, -11.440393, 2.103456, 1.476096, 1.011207, 3.439864, 87.583344, -43.633102, 22.706039
1649446864.153555, 5.219060, -11.493365, 0.745495, 1.148199, 0.851273, 2.220349, 83.062057, -44.552185, 24.295929
1649446864.186891, 5.072266, -10.188376, -2.041057, 0.688707, 1.744814, 0.531358, 80.140182, -45.952927, 25.320984
1649446864.220224, 7.318177, -9.285163, 1.001524, -0.149114, 1.746475, -1.217898, 81.295792, -47.269058, 24.541519
1649446864.253554, 12.044630, -12.335376, 0.461632, -0.604776, 1.569455, -1.972803, 85.245499, -48.471771, 23.033096
1649446864.286136, -9.891794, -23.956531, -3.428198, -0.478486, -1.386158, -2.473910, 89.032684, -49.616989, 20.917755
1649446864.320314, -0.120309, -8.198495, 1.771859, -0.338758, 1.048423, -2.480188, 93.199234, -50.076508, 20.061050
1649446864.353726, 7.911190, -7.727286, 5.227141, -0.374041, 0.072886, -1.155212, 96.292862, -50.163681, 19.642395
1649446864.387084, 7.579294, -10.411784, 0.957381, -0.107076, -1.145349, -0.719258, 98.038925, -49.910706, 18.771072
1649446864.420238, 0.532860, -10.168923, 1.192013, -0.139332, -0.030158, -0.736312, 99.096725, -49.841431, 18.459869
1649446864.453576, 4.836886, -8.051700, 2.703951, 0.010542, -1.091501, -0.524002, 99.551956, -49.846725, 17.659943
1649446864.486945, 0.017807, -9.304616, 2.961777, -0.102136, -0.649942, -0.593028, 100.646667, -49.724457, 17.250290
1649446864.520415, 1.364845, -9.128343, 2.085050, -0.169740, -0.540807, -0.693219, 101.625610, -49.564163, 16.891373
1649446864.553575, 1.541716, -9.744550, 2.454655, -0.264713, -0.338573, -0.803659, 102.456955, -49.296036, 16.025772
1649446864.587083, 1.517176, -9.366715, 2.180070, -0.428653, -0.163946, -0.929103, 103.947327, -49.009216, 15.662613
1649446864.620234, 2.724153, -8.959701, 1.574038, -0.470320, -0.023783, -0.932875, 106.062042, -48.285599, 14.220703
1649446864.653602, 2.849100, -9.418490, 1.176002, -0.503051, 0.010589, -0.895119, 107.411774, -48.082947, 13.277786
1649446864.687085, 2.612972, -9.614066, 1.874211, -0.507141, -0.115820, -0.961840, 108.813721, -47.379837, 12.229904
1649446864.720410, 2.210896, -10.282348, 1.988235, -0.621860, -0.226663, -1.123254, 110.964951, -46.416428, 11.022507
1649446864.753581, 2.628085, -11.375900, 2.050634, -0.719738, -0.245977, -1.323760, 112.713272, -45.521347, 9.137939
1649446864.786389, 2.769642, -11.769446, 2.429516, -0.728968, -0.776440, -1.467220, 114.332031, -44.301880, 7.869919
1649446864.820236, 0.950049, -13.850606, 2.883367, -0.858116, -1.015167, -1.838794, 116.642502, -42.102661, 5.049301
1649446864.853744, -0.683694, -16.378135, 4.056526, -0.773846, -1.431112, -2.140705, 118.280655, -40.198669, 2.644547
1649446864.886913, -0.947356, -11.890354, 3.090166, -0.780153, -0.847858, -2.310347, 120.279999, -38.277237, 0.539978
1649446864.920235, 12.826038, -10.113557, 1.436371, -0.073507, -0.919325, -1.263877, 122.134094, -36.512817, -0.656036
1649446864.953606, -5.478682, -3.433435, 1.780837, 0.326211, -1.429573, 0.326459, 120.469696, -36.808441, -1.898743
1649446864.986890, -1.858499, -1.812560, 0.920870, 0.831737, 0.515071, 1.140038, 119.696762, -39.331345, -0.566956
1649446865.020230, 0.500089, -4.444237, 1.312771, 1.070087, 0.885174, 2.353695, 117.625412, -42.950546, 1.484665
1649446865.053547, 3.809773, -7.912088, 1.408090, 1.168406, 0.779706, 2.925549, 112.979294, -48.665756, 4.871124
1649446865.086894, 3.793762, -8.449587, 1.258901, 1.281624, 1.083707, 3.200542, 107.769180, -53.149643, 7.787537
1649446865.120225, 2.909105, -10.139444, 1.732055, 1.388779, 1.560519, 3.019602, 102.294388, -57.006088, 11.521484
1649446865.153562, 4.996400, -10.933122, 1.475427, 1.428691, 1.815612, 2.926019, 94.216690, -60.453812, 17.009827
1649446865.186904, 5.131373, -10.523713, 1.824980, 1.346488, 1.550380, 2.758360, 87.656219, -61.649857, 21.053986
1649446865.220226, 4.300285, -10.292374, 1.202488, 1.138605, 1.310303, 2.688450, 80.856018, -61.382553, 24.365952
1649446865.253546, 4.639215, -10.953772, 1.373524, 1.095370, 1.192487, 2.282362, 72.897842, -59.596497, 27.997971
1649446865.286894, 4.727202, -10.566210, 0.985513, 0.672590, 0.555482, 1.200168, 69.215042, -58.128922, 29.716812
1649446865.320298, 7.555951, -9.283966, -0.996886, 0.228066, -0.844565, -0.196278, 68.185364, -57.500763, 31.338120
1649446865.353576, 2.926163, -10.168474, -1.213112, -0.782283, -0.338855, -1.201154, 69.018692, -57.458008, 31.965515
1649446865.386895, 0.654964, -15.980997, 3.431041, -0.330509, 1.540315, -1.868071, 73.293488, -58.406113, 29.229233
1649446865.420232, 1.474978, -11.957990, -1.969979, -0.800086, -0.463639, -2.387471, 77.249573, -58.564026, 27.520233
1649446865.453014, 9.210643, -7.135469, 1.412280, 0.033321, 0.177975, -1.607762, 81.033264, -58.544769, 26.502930
1649446865.486881, 5.615151, -11.162067, 2.597858, -0.381010, -0.992704, -0.721771, 83.928635, -58.575836, 26.149048
1649446865.520229, 1.449390, -9.882816, 2.313098, -0.190525, -1.192306, -0.550581, 84.927094, -58.320267, 25.971786
1649446865.553558, 2.254141, -9.570073, 1.342698, -0.253211, 0.069383, -0.497331, 85.893265, -57.981674, 25.220657
1649446865.586884, 4.989067, -8.612692, 2.424428, -0.121228, -0.864081, -0.188354, 86.655518, -57.688843, 25.141663
1649446865.620305, 0.556353, -9.906907, 2.194585, -0.158103, -0.779121, -0.176090, 86.915939, -57.751068, 24.798431
1649446865.652717, 1.394473, -9.215282, 2.893692, -0.279471, -0.109732, -0.364319, 87.482849, -57.226547, 24.421677
1649446865.686906, 2.275090, -8.784027, 2.983026, -0.280705, -0.235534, -0.460844, 88.223206, -56.962952, 24.049393
1649446865.720240, 0.651672, -9.773730, 1.978808, -0.330388, -0.211541, -0.606678, 89.711273, -56.883972, 23.052933
1649446865.753149, 1.720084, -9.346963, 2.218228, -0.383752, 0.015267, -0.706185, 91.070343, -56.444077, 22.277588
1649446865.786894, 2.799420, -9.755025, 1.710208, -0.388754, -0.334335, -0.820031, 92.233963, -56.009644, 21.728577
1649446865.820238, 0.296731, -10.437372, 2.523339, -0.500984, -0.182049, -1.072853, 94.754471, -54.982727, 20.296295
1649446865.853571, 1.018134, -10.735301, 2.531270, -0.638476, -0.153431, -1.348041, 97.177292, -54.196838, 18.896683
1649446865.886900, 0.892139, -10.950629, 2.447024, -0.845536, -0.383177, -1.769514, 99.654831, -52.873962, 17.605423
1649446865.920229, 0.929549, -15.067459, 2.560748, -0.968854, -0.575897, -2.120347, 103.908035, -50.310883, 14.559067
1649446865.953638, 0.132280, -17.876905, 4.238934, -1.019543, -0.930976, -2.385521, 106.965591, -47.203293, 12.349075
1649446865.986909, 1.243937, -17.531841, 5.684733, -0.979148, -1.923948, -2.126046, 109.035278, -43.546844, 9.409119
1649446866.020215, 3.452140, -7.835773, 1.047463, -0.951323, -0.446555, -2.551481, 110.948593, -39.488342, 7.144211
1649446866.053594, 6.960393, -6.401946, 1.647959, -0.202755, -0.051430, -1.116225, 113.397919, -34.900284, 5.479538
1649446866.086895, -2.476802, -2.995296, 2.458546, 0.038712, -0.057067, 0.669851, 112.479599, -33.611343, 5.244888
1649446866.119786, -1.668908, -2.403928, 0.659303, 0.470187, 0.958460, 1.605030, 111.539810, -33.813156, 5.579025
1649446866.152968, 1.529147, -4.141819, 0.487968, 0.785816, 1.275837, 2.444765, 109.305359, -34.928879, 8.112976
1649446866.186886, 2.747197, -6.078429, 1.002273, 0.889473, 1.181875, 3.523570, 106.339981, -37.012833, 9.983231
1649446866.220232, 3.028515, -7.121254, 1.409437, 1.074548, 1.225411, 4.163635, 102.270828, -39.236893, 12.092606
1649446866.253586, 3.710863, -9.433304, 1.563414, 1.446251, 1.101997, 4.517906, 95.289734, -42.498001, 15.867508
1649446866.286949, 2.965368, -11.941829, 1.792509, 2.019882, 1.608374, 4.462970, 89.047180, -44.532669, 20.214966
1649446866.319263, 6.814048, -13.613580, 1.842338, 2.077200, 0.878571, 3.528706, 82.275208, -45.193619, 25.518143
1649446866.353555, 9.799767, -13.861530, 2.396596, 1.003149, 0.033349, 3.078602, 74.287201, -43.824127, 30.357758
1649446866.386897, 6.382942, -10.618434, 0.651971, 0.635233, -0.312543, 1.406598, 70.395981, -42.091705, 32.574829
1649446866.420267, 4.836138, -11.630134, -2.714426, -0.683255, 0.392794, -1.633419, 70.528427, -41.602905, 32.912262
1649446866.453553, -2.106149, -15.683966, 2.645892, -0.794490, 1.987927, -1.693674, 73.204132, -42.272781, 31.207748
1649446866.486901, 5.409549, -11.678616, -2.965069, -0.209121, 0.353344, -2.928088, 77.184174, -42.298584, 29.649261
1649446866.520232, 5.516390, -7.521833, 0.455347, -0.113238, 0.878276, -1.739722, 80.206741, -42.888580, 29.126633
1649446866.553567, 8.201787, -9.741408, 3.746028, -0.075056, -1.250567, -0.907521, 81.645432, -42.656281, 29.199982
1649446866.586010, -4.461744, -10.531943, 0.950797, -0.038565, -0.500467, -0.892662, 83.160629, -42.411530, 29.566956
1649446866.620231, 4.189703, -9.742007, 2.269853, -0.067967, -0.442702, -0.823835, 84.531631, -42.345764, 29.110062
1649446866.653567, 2.605191, -8.776994, 3.359813, -0.057114, -0.902493, -0.617120, 85.409775, -42.210220, 29.095001
1649446866.686900, 0.774973, -9.405920, 2.853888, -0.178665, -0.430497, -0.729681, 86.565369, -41.852310, 28.852936
1649446866.720232, 1.142034, -9.609727, 2.791789, -0.274501, -0.440281, -0.877607, 87.611191, -41.663895, 28.410599
1649446866.753577, 0.799364, -9.570671, 2.482039, -0.410475, -0.170212, -1.041446, 88.690552, -41.235184, 28.028336
1649446866.786922, 3.096750, -9.239374, 1.993323, -0.472215, -0.184175, -1.157979, 90.162827, -40.645493, 27.229980
1649446866.819346, 3.879804, -8.320599, 1.470040, -0.491250, -0.108685, -1.130858, 92.099808, -40.355057, 26.185547
1649446866.853566, 3.365948, -8.510190, 1.663222, -0.464422, -0.017897, -1.023047, 93.298157, -39.602005, 25.249802
1649446866.886900, 4.057124, -9.623045, -0.076914, -0.309363, -0.631858, -0.946691, 94.307755, -39.146088, 24.447632
1649446866.920237, 3.210924, -9.727342, 1.423054, -0.360107, -0.354956, -1.029024, 96.024734, -38.564774, 23.714340
1649446866.953570, 3.750667, -10.206332, 2.069338, -0.483313, -0.239559, -1.074479, 97.058334, -37.795761, 22.868011
1649446866.986927, 3.345298, -11.489175, 2.350358, -0.570943, -0.361039, -1.220691, 98.449478, -36.823105, 21.687805
1649446867.020237, 0.820164, -13.753342, 2.737021, -0.756923, -0.422019, -1.524081, 100.270767, -35.384262, 20.603271
1649446867.053575, 0.226851, -17.439066, 4.827010, -0.774222, -1.040035, -1.843459, 101.902054, -33.577545, 19.015717
1649446867.086906, 2.034323, -16.536751, 3.528006, -0.744241, -2.224659, -1.662078, 102.341599, -31.045624, 16.493790
1649446867.119484, 0.127192, -11.710639, 1.609801, -1.029969, 0.206809, -2.375764, 103.362122, -28.418198, 14.432861
1649446867.153555, 7.061099, -8.618378, 1.716343, -0.270349, 0.005824, -1.370578, 105.382645, -24.862930, 12.760452
1649446867.186901, 3.628862, -3.260454, 2.639907, 0.181972, -0.318447, 0.315126, 105.144806, -22.958618, 12.048721
1649446867.220234, -2.882768, -3.227234, 2.083255, 0.301345, -0.332167, 1.402093, 103.508072, -21.915863, 11.482529
1649446867.253570, 2.368763, -3.333627, 1.369034, 0.715292, 0.212263, 2.188834, 100.461624, -20.724182, 10.895920
1649446867.286902, 2.230648, -4.245518, 0.806098, 1.250584, 0.232828, 3.224503, 97.973511, -19.969162, 10.838379
1649446867.320194, 3.609858, -6.197092, 1.834108, 1.493547, 0.120563, 3.861959, 95.440460, -19.173492, 10.419296
1649446867.353776, 2.986617, -8.855254, 0.488866, 1.767783, 0.829295, 4.255038, 93.116623, -18.943359, 10.445755
1649446867.387111, 3.342904, -10.575338, 0.616956, 2.050891, 1.359191, 4.071519, 92.317963, -20.631775, 10.742722
1649446867.420425, 3.763386, -13.294852, 1.723077, 2.006060, 1.972308, 3.849021, 91.694305, -23.463425, 12.052322
1649446867.453598, 5.136610, -13.094188, 1.303493, 1.753889, 2.296790, 3.536304, 89.184250, -27.770370, 14.928314
1649446867.486969, 6.708254, -13.097181, 3.078794, 1.320827, 1.108823, 2.673057, 85.504593, -30.443985, 17.231934
1649446867.520313, 7.655460, -11.416302, 1.764227, 0.642941, -0.554161, 1.102270, 82.204483, -32.502014, 19.025909
1649446867.553632, 4.916493, -11.148151, -1.301099, -0.286473, -0.645353, -0.886105, 80.764786, -33.595505, 19.767349
1649446867.586934, 4.000711, -15.448885, -1.856554, -0.472245, 2.003914, -2.505944, 83.273514, -34.870087, 19.035812
1649446867.620235, -10.843639, -20.456358, -1.942446, -0.705798, -0.068743, -2.789924, 84.955246, -35.729568, 18.416641
1649446867.653600, 6.314857, -9.888801, 4.792892, -0.162143, 1.068419, -2.705511, 87.948181, -36.091949, 18.683853
1649446867.686905, 8.440159, -6.556222, 5.922357, -0.266660, -0.912866, -1.221765, 90.540115, -36.370407, 18.755783
1649446867.720254, 2.714875, -10.399963, 0.438139, -0.222038, -0.687906, -1.034973, 91.422058, -36.555588, 18.065689
1649446867.753780, 3.095703, -9.239075, 2.180070, -0.270495, 0.016681, -1.055372, 92.396042, -36.412231, 18.003799
1649446867.787088, 4.465036, -8.216900, 3.085976, -0.132438, -0.906155, -0.684325, 93.562256, -36.529770, 17.681564
1649446867.820191, 0.475399, -9.372402, 2.305915, -0.166521, -0.472443, -0.687124, 93.749222, -36.579590, 17.335327
1649446867.853585, 2.229600, -9.418041, 2.571672, -0.175958, -0.576782, -0.690937, 94.580872, -36.531174, 17.198517
1649446867.887093, 1.621623, -9.383624, 1.913266, -0.247253, -0.596389, -0.770159, 95.432861, -36.388031, 16.720398
1649446867.920431, 1.119289, -8.817396, 2.726098, -0.417404, -0.087371, -1.027009, 96.364487, -36.145950, 16.352539
1649446867.953615, 1.666215, -9.516802, 3.267786, -0.461092, -0.266627, -1.136937, 97.744568, -36.111710, 15.325363
1649446867.987096, 3.206285, -8.740632, 0.859069, -0.473436, -0.235380, -1.178746, 98.962616, -35.717194, 14.497314
1649446868.020445, 3.264344, -9.380632, 1.380257, -0.494709, -0.243042, -1.172634, 100.538132, -35.103439, 14.175766
1649446868.053784, 3.541623, -9.866954, 1.944241, -0.562258, -0.283315, -1.228050, 101.657364, -34.561310, 12.965729
1649446868.085981, 3.163040, -10.864139, 2.666841, -0.714268, -0.128298, -1.382196, 103.303879, -34.007019, 12.237610
1649446868.120225, 2.536208, -12.304551, 2.455403, -0.828958, -0.324052, -1.659432, 105.529266, -32.860397, 10.962418
1649446868.153584, 1.526004, -13.999945, 3.676147, -0.864938, -0.699614, -1.974192, 107.465225, -31.541214, 9.041870
1649446868.186925, 2.524087, -17.892617, 5.661090, -0.746835, -1.815536, -1.901255, 109.007172, -30.271149, 7.079575
1649446868.220239, -3.250428, -15.900641, 3.016245, -0.762087, -2.727275, -1.740300, 109.747101, -28.586319, 3.136490
1649446868.253572, 4.481646, -10.868179, 1.131111, -0.691851, -0.311396, -2.163200, 112.113617, -26.929764, 0.973984
1649446868.286143, 10.897807, -3.633650, 0.374393, -0.334990, -0.345495, -1.066187, 114.367783, -25.996170, -1.477341
1649446868.320046, 0.079458, -2.845958, 2.230648, 0.171962, -1.318598, 0.679109, 114.004227, -26.786957, -3.288879
1649446868.353776, -2.072780, -1.747019, -0.042048, 0.509833, 0.043229, 1.784271, 113.103745, -29.542236, -5.003052
1649446868.387105, 1.259799, -3.078345, -0.404321, 1.023729, 1.136478, 2.492114, 112.666443, -33.081833, -5.166977
1649446868.420208, 1.746271, -5.202301, 0.432453, 1.445601, 1.953241, 3.213767, 112.058517, -37.888885, -4.120239
1649446868.453648, 2.687791, -7.405415, 1.898901, 1.392201, 1.280351, 3.979172, 109.597824, -46.764236, -2.089645
1649446868.486973, 6.580613, -9.048885, 1.587206, 1.582252, 0.916018, 4.640242, 104.078995, -54.919662, 0.226349
1649446868.520254, 3.807529, -10.827178, 1.375469, 2.004117, 0.996297, 4.697563, 95.781891, -62.751129, 3.433365
1649446868.553574, 3.256114, -13.438654, 2.321478, 2.085418, 1.585265, 4.072414, 82.317200, -71.158920, 10.059113
1649446868.586937, 4.174889, -13.748553, 2.793136, 1.898636, 1.460398, 3.485316, 71.005005, -74.505219, 15.388351
1649446868.620228, 6.352565, -12.493393, 2.835633, 1.541446, 0.413999, 2.687435, 60.116440, -75.089157, 20.469604
1649446868.653631, 4.944625, -10.225037, 1.360505, 0.725984, -0.829281, 0.846113, 50.113693, -74.177521, 27.377060
1649446868.686913, 1.788768, -9.931597, -0.187047, -0.172432, -0.405221, -0.852273, 47.735214, -74.563034, 29.761612
1649446868.720229, -1.050157, -11.124059, 0.067786, -0.636577, 1.228363, -2.268057, 49.647232, -76.567871, 28.776733
1649446868.753579, -2.258929, -15.372570, 5.694908, -0.885301, 2.274919, -1.829020, 53.632050, -78.360458, 24.475723
1649446868.786908, 6.786365, -18.590078, -4.159327, -0.532554, 0.504374, -2.942291, 59.986176, -78.122864, 21.495239
1649446868.819751, 4.497657, -7.807641, 0.547225, -0.314441, 0.875136, -2.311584, 66.027222, -78.440903, 19.770172
1649446868.853637, 6.257545, -9.497050, 6.330718, -0.073398, 0.516963, -1.518809, 69.669342, -78.796646, 18.964172
1649446868.886934, 5.908441, -10.092607, 0.877176, -0.104719, -1.523910, -0.662448, 72.292374, -78.711456, 19.885117
1649446868.920436, -5.291186, -10.765079, -0.052672, -0.211807, 0.675799, -1.230117, 74.314636, -78.402573, 19.252258
1649446868.953783, 7.158364, -7.826795, 4.015525, -0.127283, -0.497939, -0.861909, 76.644440, -77.854065, 18.602951
1649446868.987099, 1.386991, -8.945486, 2.660108, -0.196868, -0.427439, -0.737107, 78.419006, -77.541885, 18.784958
1649446869.020448, 1.536629, -9.246706, 1.524658, -0.212627, 0.001992, -0.797523, 80.212891, -77.394669, 17.920807
1649446869.053786, 2.770241, -8.609699, 2.257882, -0.186026, -0.044531, -0.780715, 81.660370, -77.158676, 17.649734
1649446869.086905, 4.048445, -8.476372, 2.439392, -0.165690, -0.224159, -0.639366, 83.295166, -76.882080, 17.352554
1649446869.119444, 2.078766, -9.939977, 2.050933, -0.153431, -0.336977, -0.687391, 85.001221, -76.546844, 16.669861
1649446869.153575, 2.247108, -10.050859, 2.664298, -0.188388, -0.494675, -0.805445, 86.425446, -76.322922, 16.617737
1649446869.186913, 1.077840, -10.285640, 3.327192, -0.336406, -0.484083, -1.053333, 88.292419, -75.407120, 16.203430
1649446869.220294, 1.481562, -11.086500, 3.588459, -0.549995, -0.641008, -1.427302, 91.785767, -73.882736, 14.850555
1649446869.253576, 0.994043, -11.775133, 2.697218, -0.739211, -0.621160, -1.769989, 94.647293, -72.360336, 13.138794
1649446869.286911, 2.008286, -13.055133, 2.510620, -0.886635, -0.754296, -2.046367, 98.061340, -69.777313, 11.444611
1649446869.319728, 1.773655, -15.163377, 3.080739, -0.864060, -1.352361, -2.237947, 102.536194, -65.679779, 9.044556
1649446869.353619, 0.277129, -17.171364, 4.040664, -0.884246, -2.263469, -1.940634, 104.148224, -61.542267, 6.845490
1649446869.387120, -1.170465, -13.175441, 1.254262, -1.158989, -1.655246, -2.094759, 105.070267, -57.423874, 4.498840
1649446869.420239, 4.587141, -8.275408, 2.564639, -0.857008, -0.571872, -1.902480, 107.619659, -51.562378, 3.238022
1649446869.453782, 7.300669, -3.484162, 0.517746, 0.048381, -0.173411, -0.202388, 106.912491, -48.694244, 3.498825
1649446869.487116, -2.560000, -1.977760, 0.621744, 0.375643, -0.961584, 1.271927, 102.990402, -47.861725, 4.735992
1649446869.520445, -0.641047, -2.469769, -0.666187, 1.004436, -0.011633, 2.588143, 97.513657, -47.274338, 6.888672
1649446869.553657, 0.733972, -4.500949, -1.069909, 1.446586, 0.850944, 3.382133, 88.460785, -46.169357, 11.528671
1649446869.587057, 1.200542, -6.365733, 0.278176, 1.686962, 1.384557, 4.120440, 80.505600, -44.073425, 15.153915
1649446869.620334, 1.786374, -8.921544, 0.463577, 1.781418, 1.490151, 4.723289, 72.504715, -39.478134, 17.918304
1649446869.653760, 5.413290, -11.405677, 1.641674, 2.000754, 0.734163, 5.394375, 63.083008, -30.744781, 21.193192
1649446869.686971, 3.016544, -15.986234, 0.710779, 2.321776, 1.073561, 5.089700, 58.570358, -22.913162, 22.017120
1649446869.720436, 6.373365, -12.962657, 1.589301, 2.089144, 1.308053, 4.037719, 57.281723, -16.399689, 21.299835
1649446869.753615, 8.758439, -13.729400, 1.639579, 0.994744, 0.688777, 2.695196, 57.786591, -10.708908, 20.786438
1649446869.786914, 7.147440, -8.218995, -1.512238, 0.152829, -1.019487, 0.158148, 59.408005, -8.666428, 20.515732
1649446869.819596, 3.759346, -11.380089, -2.655619, -0.815218, -0.675501, -1.799317, 61.835922, -8.809631, 20.218521
1649446869.853658, -6.981941, -14.118009, 6.936002, -0.631604, -0.924529, -1.105847, 64.498459, -10.090668, 19.557693
1649446869.887131, 4.095731, -15.608250, -1.171513, -0.801613, 0.226666, -2.135352, 68.645462, -10.652985, 17.782700
1649446869.920443, 5.863699, -8.776096, 0.248099, -0.184770, -0.313739, -1.881492, 70.949844, -11.495865, 17.171722
1649446869.953776, 3.698144, -9.282918, 2.883966, -0.187751, -0.048996, -1.226844, 72.677567, -12.116745, 16.849594
1649446869.986929, 4.431518, -9.738266, 3.009212, -0.030842, -1.327093, -0.666554, 73.963013, -12.679306, 17.032120
1649446870.020455, -0.670227, -10.208427, 1.801188, -0.085670, -0.779534, -0.701557, 74.436462, -12.697952, 17.310730
1649446870.053752, 1.792808, -9.364770, 2.553715, -0.141384, -0.450196, -0.603171, 75.437057, -13.096436, 17.352036
1649446870.086623, 2.433556, -8.562713, 3.198653, -0.131080, -0.647863, -0.610291, 76.198181, -13.416840, 17.545563
1649446870.119927, -0.061651, -9.295488, 2.729390, -0.257917, -0.119499, -0.720222, 76.989853, -13.526093, 17.165375
1649446870.152608, 1.974468, -9.037213, 2.341230, -0.320813, -0.007023, -0.824367, 77.975876, -13.417328, 16.786407
1649446870.186911, 1.690007, -9.228899, 2.309058, -0.462052, -0.135846, -0.934975, 79.545197, -14.067688, 16.220200
1649446870.220254, 0.458340, -9.439888, 1.983895, -0.618738, 0.186024, -1.163530, 80.789215, -13.755066, 15.278870
1649446870.253585, 0.837821, -9.255984, 2.583643, -0.659996, 0.253161, -1.300379, 82.579620, -13.157135, 14.581848
1649446870.286920, 4.739173, -8.951621, 1.364096, -0.590277, -0.018363, -1.163082, 83.823975, -13.103867, 14.115005
1649446870.320250, 3.258957, -9.632771, 1.235258, -0.554517, -0.287485, -1.144311, 85.624802, -12.799026, 13.300323
1649446870.353572, 3.319561, -10.252420, 1.779490, -0.603694, -0.050764, -1.263166, 86.911469, -12.189743, 12.498138
1649446870.386920, 2.641852, -10.662278, 2.571223, -0.644732, -0.498311, -1.438895, 88.572937, -11.955978, 12.036041
1649446870.420251, 1.949329, -13.549835, 3.405453, -0.839858, -0.717300, -1.773389, 90.637024, -11.568497, 11.073334
1649446870.453594, 0.153528, -20.876541, 5.146935, -1.072999, -1.075812, -2.132962, 92.634064, -10.999863, 9.989990
1649446870.486904, -3.753360, -15.127464, 5.189731, -1.007400, -0.854372, -2.389393, 95.202118, -10.378967, 8.538925
1649446870.520245, 4.898387, -5.836016, 0.614861, -0.640531, -0.225036, -1.964676, 98.729446, -9.854752, 7.598480
1649446870.553589, -3.181445, -2.923171, 4.843919, 0.143338, -1.491943, 0.376976, 99.445084, -10.051147, 6.821182
1649446870.586948, -0.118513, -3.324349, 1.178695, 0.577201, -0.177468, 1.425554, 99.312286, -11.175842, 6.273758
1649446870.620246, -0.559196, -5.453393, 0.896778, 1.183741, -0.006677, 2.377165, 98.632141, -12.691879, 6.626541
1649446870.653586, 1.863287, -7.656358, 0.328455, 1.405443, 0.542266, 2.730940, 97.300354, -14.842300, 7.606247
1649446870.686927, 2.447323, -8.626009, 0.823905, 1.441031, 0.863697, 3.024482, 96.054260, -16.757690, 8.377808
1649446870.720258, 2.325069, -9.219023, 0.902015, 1.558662, 1.543829, 3.357882, 94.231079, -18.843826, 9.865402
1649446870.753571, 3.204789, -10.944345, 1.604564, 1.633195, 1.715407, 3.343215, 91.714371, -21.305328, 11.470963
1649446870.786921, 3.526809, -11.490522, 1.691204, 1.634688, 1.761552, 3.350027, 89.621048, -22.779373, 12.900192
1649446870.820248, 2.759467, -11.531223, 1.286883, 1.408672, 2.070906, 3.016521, 87.283020, -24.087616, 13.969788
1649446870.853584, 3.384653, -12.089671, 1.601272, 1.129549, 1.811143, 2.456007, 84.421997, -25.982651, 16.065918
1649446870.886929, 8.305486, -10.251972, 1.447744, 0.671994, 0.964901, 1.607979, 82.986313, -26.357864, 16.518661
1649446870.920249, 6.471677, -9.336339, 1.527201, -0.037482, -0.905494, -0.346238, 82.021103, -27.214874, 17.411163
1649446870.953645, 5.811176, -11.172542, 0.575357, -0.605338, -1.035316, -1.589533, 82.705063, -28.255432, 17.622284
1649446870.986928, -3.336320, -14.951340, 4.289063, -0.412198, 0.053566, -1.520600, 84.731903, -28.439117, 16.879532
1649446871.020255, 2.475006, -14.469657, -4.030638, -1.066671, 0.061357, -2.410204, 86.936691, -28.736984, 15.926102
1649446871.053591, 5.842002, -8.168717, -0.173729, 0.086689, 1.110962, -2.049477, 89.350418, -29.080704, 16.173599
1649446871.086940, 4.984877, -9.301324, 3.688268, -0.232260, -0.081847, -1.308258, 91.729324, -29.168106, 16.237991
1649446871.120310, 3.797653, -8.808717, 2.850596, -0.097155, -1.444273, -0.578833, 92.143463, -29.027191, 15.863907
1649446871.153589, -0.782156, -10.024373, 1.606958, -0.131065, 0.046561, -0.754239, 92.731003, -29.015289, 15.813400
1649446871.186906, 3.866486, -9.448866, 2.423082, -0.053810, -0.569721, -0.544903, 93.415024, -29.403442, 16.082565
1649446871.220294, 1.990928, -8.891616, 3.552247, -0.053714, -0.881748, -0.486147, 93.935089, -29.026154, 15.703979
1649446871.253603, 1.127070, -9.147646, 2.472911, -0.216673, -0.448315, -0.603999, 94.227814, -29.070465, 15.689270
1649446871.286906, 0.414646, -9.768343, 3.007117, -0.306269, -0.453978, -0.698024, 94.871964, -29.093765, 15.043976
1649446871.320255, 1.115548, -9.130587, 2.159869, -0.372235, -0.247307, -0.878669, 95.714249, -28.786545, 14.657257
1649446871.353610, 2.270900, -9.562591, 2.179023, -0.369235, -0.445473, -0.962436, 97.022720, -28.585739, 14.329132
1649446871.386941, 1.924190, -9.324967, 1.594538, -0.361132, -0.372938, -1.056602, 97.856812, -28.453278, 14.022980
1649446871.419741, 3.058593, -10.038588, 2.339883, -0.411845, -0.353877, -1.145129, 99.380157, -27.919464, 13.509003
1649446871.453574, 2.250998, -9.966912, 2.631677, -0.565627, -0.418882, -1.305879, 100.673889, -27.384567, 12.757782
1649446871.486934, 2.725499, -10.753706, 2.902371, -0.732005, -0.300924, -1.525628, 102.197372, -27.011734, 12.217560
1649446871.520255, 1.159093, -13.250559, 2.553865, -0.930920, -0.555370, -1.756793, 103.936752, -25.971161, 10.959808
1649446871.553633, -1.967884, -18.269255, 5.168333, -1.196028, -0.262365, -2.318618, 106.526001, -24.755325, 9.874298
1649446871.586923, -0.997933, -15.322142, 4.674379, -0.912208, -1.056947, -2.574791, 109.516357, -23.662186, 8.586349
1649446871.620330, 6.071845, -10.149320, 1.342249, -0.800730, -0.446081, -2.625904, 113.026337, -22.079910, 7.251205
1649446871.653589, 3.479374, -9.568277, 2.908805, -0.281610, -1.297929, -1.218690, 114.421127, -21.596863, 6.373215
1649446871.686926, -3.181595, -5.542726, 2.141164, 0.323910, -0.439785, 0.205890, 114.904129, -23.004745, 6.065247
1649446871.720349, -0.496647, -4.721066, 1.192013, 0.731832, -0.050160, 1.321969, 115.016113, -25.733047, 7.102249
1649446871.753603, 1.245883, -4.320187, 0.495749, 1.036915, 0.525343, 2.305633, 112.610046, -29.879562, 10.421631
1649446871.786205, 2.660557, -6.311864, 0.937480, 1.234602, 0.396319, 3.140388, 110.035278, -34.065140, 13.090530
1649446871.820258, 3.507057, -6.190957, 0.482432, 1.534637, 0.258523, 3.713722, 105.517929, -38.591248, 16.502869
1649446871.853588, 3.524714, -8.593538, 1.185279, 1.770683, 0.375866, 4.128353, 96.955307, -42.349289, 22.170425
1649446871.886921, 3.929783, -10.929381, 1.685069, 1.952397, 0.522008, 4.510340, 88.533066, -44.025223, 26.807388
1649446871.920256, 3.134160, -11.760319, 1.167024, 2.189451, 1.223295, 4.259947, 79.511703, -43.767853, 31.960876
1649446871.953584, 4.282030, -12.200702, 0.762703, 2.000682, 2.015191, 3.535028, 69.368698, -39.607681, 36.937256
1649446871.986963, 6.680720, -15.284134, 1.900547, 1.591553, 2.029192, 2.763050, 63.631256, -35.605637, 38.279785
1649446872.020256, 7.882011, -11.078869, 0.630423, 0.468801, 0.827889, 0.279341, 60.566544, -32.676559, 38.303070
1649446872.053578, 7.656507, -11.900679, -1.265485, -0.593786, 0.212866, -1.998106, 62.948334, -33.027924, 38.315384
1649446872.086923, 0.310049, -16.106543, 4.681562, -0.536840, 1.263356, -2.303106, 65.849731, -33.850601, 36.732422
1649446872.120255, 5.572055, -13.683611, -4.380042, -0.545281, -0.302895, -2.133933, 68.789581, -34.503021, 35.508438
1649446872.153578, 3.878307, -9.520543, 4.264522, -0.256498, 0.191786, -2.176005, 71.838608, -35.767426, 35.554031
1649446872.186932, 4.427926, -7.920917, 3.120992, -0.284490, -0.644276, -1.504146, 75.586288, -36.093704, 35.326965
1649446872.220260, 1.629853, -9.989657, 2.767547, -0.383546, -0.568120, -0.871124, 76.836746, -36.049683, 34.624115
1649446872.253623, 2.500744, -9.438691, 1.648557, -0.402080, -0.013876, -0.830712, 77.927155, -36.629227, 34.099869
1649446872.286931, 3.942951, -9.033772, 2.133832, -0.282163, -0.545297, -0.499975, 79.625336, -36.756546, 33.992508
1649446872.320260, 1.294066, -9.151686, 1.780687, -0.218349, -0.494441, -0.467560, 80.316879, -36.533112, 33.737335
1649446872.353606, 0.703147, -9.109189, 2.099715, -0.274805, -0.070327, -0.595958, 80.859863, -36.605087, 33.177124
1649446872.386902, 1.650203, -8.749760, 3.023428, -0.314773, -0.174113, -0.647149, 82.284714, -36.754807, 33.159393
1649446872.420247, 1.329081, -9.938630, 1.944990, -0.378121, -0.200441, -0.764069, 83.491898, -36.485992, 32.566208
1649446872.453591, 1.903241, -9.651775, 1.340903, -0.355450, -0.330970, -0.819746, 84.554413, -36.549850, 31.754196
1649446872.486944, 2.378190, -9.444078, 2.407519, -0.399747, -0.364514, -0.871958, 86.395615, -36.808029, 31.460358
1649446872.520273, 2.770690, -10.365247, 2.913145, -0.501972, -0.503346, -1.047144, 87.769669, -36.057098, 30.568680
1649446872.552986, 1.025915, -10.713155, 2.800767, -0.753123, -0.430751, -1.367699, 89.172607, -35.681824, 29.866226
1649446872.586424, 0.708085, -11.655273, 2.912097, -0.916277, -0.396625, -1.679660, 91.312485, -35.694107, 28.791595
1649446872.619408, 1.012897, -16.741305, 3.403956, -1.129675, -0.425041, -2.046957, 95.400665, -34.369308, 26.819321
1649446872.653667, 1.891270, -18.877083, 3.552696, -1.147670, -1.576613, -2.150419, 97.991211, -32.613647, 24.632538
1649446872.686997, -2.630180, -15.545701, 5.509956, -1.226924, -0.998695, -2.105849, 100.420822, -30.836014, 22.867905
1649446872.720259, 5.334431, -8.269273, 2.627636, -0.741739, 0.337286, -2.534970, 104.834778, -27.906708, 21.235016
1649446872.753189, 1.554735, -5.562479, 3.460519, 0.032663, 0.047045, -0.128989, 105.773605, -26.039413, 21.186295
1649446872.786927, 0.885106, -1.987337, 2.404976, 0.593018, 0.361652, 0.910006, 105.610413, -24.939331, 21.955444
1649446872.820251, 0.161609, -3.299210, 0.983119, 0.951121, 0.140813, 1.951757, 104.417099, -24.809677, 23.768311
1649446872.853583, 1.813308, -4.317045, 0.839467, 1.373928, 0.276032, 3.067762, 102.449188, -24.590530, 25.799667
1649446872.886287, 2.218677, -5.296423, 1.291073, 1.700716, 0.604213, 3.792101, 100.181839, -24.224640, 28.125244
1649446872.920258, 2.947711, -8.050054, 1.439813, 1.963576, 0.925707, 3.973780, 97.677048, -24.358643, 30.936172
1649446872.953593, 3.656844, -11.124808, 1.516427, 2.140791, 1.312955, 4.372969, 94.744461, -24.356415, 34.571457
1649446872.986975, 3.727473, -14.743195, 0.640000, 2.006723, 1.951539, 3.783890, 92.585480, -23.845078, 37.575256
1649446873.020278, 4.841525, -13.214646, 1.190218, 1.380957, 1.290873, 3.225187, 90.416092, -24.370422, 39.802963
1649446873.053663, 7.876325, -11.905168, 0.675015, 1.145085, 1.072058, 2.323857, 87.667694, -25.539902, 41.458069
1649446873.085998, 6.777237, -11.290606, 0.277278, 0.171265, -0.776937, 0.253260, 87.868500, -25.881241, 42.708481
1649446873.120248, 4.361188, -10.233117, -0.633715, -0.528624, -0.646680, -1.323326, 89.329224, -26.569977, 42.680847
1649446873.153582, 0.524929, -10.569951, 5.847688, -0.323444, 1.208558, -1.889840, 91.663254, -27.942520, 42.253815
1649446873.186916, -10.542418, -18.906262, 0.813879, -1.293957, -0.299185, -2.381938, 93.617599, -28.938751, 40.884293
1649446873.220274, 11.883021, -11.100866, 0.080206, -0.297857, 0.791398, -2.263996, 95.872284, -29.573181, 40.245575
1649446873.253594, 1.429338, -5.647323, 2.184110, -0.080358, 0.332307, -1.550572, 97.444321, -29.604111, 39.996567
1649446873.286927, 5.503970, -10.915914, 5.067926, -0.290953, -0.585991, -0.885144, 99.167847, -29.874908, 39.565155
1649446873.320266, 1.115249, -9.377340, 2.345121, -0.288762, -0.537579, -0.820873, 100.459778, -29.646347, 39.230423
1649446873.353480, 2.837877, -10.246285, 2.927809, -0.394415, 0.004166, -0.880842, 101.531128, -29.889954, 38.743256
1649446873.386983, 2.233790, -9.066542, 2.968062, -0.390930, -0.412459, -0.809469, 102.414871, -30.224167, 37.927612
1649446873.420332, -0.037858, -9.385869, 2.030582, -0.419569, -0.115530, -0.862872, 103.693222, -29.633530, 37.273422
1649446873.453624, 2.954295, -8.568848, 1.973121, -0.356476, -0.489380, -0.841479, 104.439133, -29.533310, 36.713562
1649446873.486958, 1.724573, -8.851663, 1.653496, -0.397206, -0.382371, -0.891306, 105.628204, -29.936890, 35.406021
1649446873.520469, 3.570952, -8.390330, 1.282095, -0.396375, -0.492470, -0.912720, 106.891357, -29.443420, 35.122696
1649446873.553800, 2.865410, -9.335441, 2.082207, -0.444012, -0.397544, -0.973003, 108.202606, -29.135880, 34.146210
1649446873.586908, 1.681029, -10.136002, 2.086696, -0.523583, -0.405274, -1.098827, 109.304535, -28.806625, 33.047180
1649446873.620469, 2.979883, -10.527305, 2.683750, -0.650979, -0.472482, -1.294921, 110.810257, -28.553314, 32.015213
1649446873.653674, 1.447295, -11.300482, 2.462287, -0.787316, -0.635460, -1.655339, 112.681656, -27.958298, 30.932770
1649446873.686967, -0.970549, -17.045818, 4.087501, -1.077854, -0.548846, -2.207506, 114.083969, -26.868271, 29.519028
1649446873.720418, 2.683002, -20.338743, 5.069123, -1.129877, -1.766143, -2.226461, 116.436783, -25.793976, 26.414764
1649446873.753659, 0.211737, -17.760637, 7.001543, -1.110914, -3.005997, -1.909281, 117.266693, -24.838348, 23.067413
1649446873.787139, 5.609315, -7.481431, 1.519869, -0.699617, -1.166831, -1.776420, 117.311157, -23.878662, 20.718765
1649446873.820454, 6.940342, -3.201945, 0.723947, 0.384301, -0.617330, -0.140726, 116.614441, -24.191544, 19.444946
1649446873.853397, -1.973570, -1.092055, 2.520197, 0.822673, -0.654023, 1.247987, 114.740295, -25.039551, 19.930847
1649446873.886939, -1.715445, -1.280898, -0.371700, 1.270286, 0.422508, 1.874927, 111.733322, -26.773727, 21.211914
1649446873.920447, 1.511190, -2.449119, -0.351499, 1.843215, 1.234299, 2.495633, 106.897720, -29.295746, 24.626816
1649446873.953815, 1.228375, -5.371541, 0.620547, 1.985690, 1.610476, 3.726613, 101.738800, -30.702820, 27.903748
1649446873.986941, 2.714725, -9.749040, 1.801786, 1.888063, 1.725470, 3.973515, 95.333679, -30.606400, 30.432709
1649446874.020270, 4.544494, -13.078327, 1.626561, 1.811295, 2.318859, 4.386155, 87.906479, -29.175278, 31.429993
1649446874.053795, 4.786009, -15.684864, 1.391929, 1.747310, 2.347106, 4.064001, 79.861160, -26.045090, 31.319977
1649446874.085945, 5.044134, -11.387721, 1.770961, 1.648551, 1.119445, 3.358963, 76.290802, -22.819962, 29.983795
1649446874.120271, 9.381081, -12.241254, 0.764349, 1.408223, 0.759585, 2.279565, 74.480377, -20.815369, 28.720917
1649446874.153599, 5.812074, -12.666973, 0.705392, 0.044162, -0.495694, -0.032322, 73.745071, -20.424561, 26.928574
1649446874.186932, 7.114819, -11.223419, -2.044798, -0.848226, -0.503749, -1.750593, 76.044754, -21.002380, 25.631989
1649446874.220265, -9.662100, -12.759748, 2.180220, -0.491340, -0.372491, -1.010279, 77.906372, -21.879807, 24.097961
1649446874.253606, 3.953425, -14.541034, -2.870947, -0.597936, 0.800912, -2.029535, 81.186371, -23.216171, 22.274597
1649446874.286934, 5.891382, -7.845200, 1.569100, -0.253354, 1.118511, -1.881897, 84.204041, -23.320068, 21.885696
1649446874.320282, 5.489156, -9.195979, 3.387047, -0.282228, -0.258884, -1.227621, 85.733398, -23.494385, 21.465561
1649446874.353251, 1.394772, -9.185953, 2.566734, -0.180195, -1.765920, -0.838022, 86.662262, -24.143494, 20.649384
1649446874.387140, -1.343895, -10.820445, 1.773804, -0.354290, 0.553094, -0.918991, 87.937714, -24.192642, 20.870834
1649446874.420286, 4.966771, -8.663419, 2.336741, -0.265079, -0.080598, -0.603330, 88.952637, -24.015228, 20.468307
1649446874.453806, 2.953846, -9.371504, 2.670732, -0.163631, -0.986421, -0.350495, 89.487671, -24.370743, 19.937241
1649446874.486959, -0.552761, -9.468619, 1.147272, -0.237928, -0.041955, -0.593438, 89.860229, -24.758652, 20.032654
1649446874.520459, 2.356343, -9.143157, 2.748544, -0.246707, -0.253467, -0.652146, 91.043472, -24.733078, 19.687180
1649446874.553621, 0.907851, -9.521291, 2.564040, -0.325078, -0.308027, -0.781720, 91.554230, -24.441696, 19.105133
1649446874.586962, 0.804901, -9.447071, 2.050484, -0.460544, -0.195175, -1.042873, 93.091217, -24.640625, 18.380112
1649446874.620474, -0.645986, -10.317214, 3.582624, -0.598534, -0.135222, -1.425361, 95.005066, -24.480515, 18.170074
1649446874.653808, 1.477971, -9.974693, 2.738219, -0.712778, -0.350782, -1.680549, 96.964218, -24.035797, 16.909592
1649446874.687125, 3.596540, -10.304195, 1.049109, -0.777526, -0.547547, -1.839235, 99.505676, -23.598389, 15.570450
1649446874.720293, 2.404377, -11.609334, 1.891569, -0.914544, -0.482255, -1.941394, 102.171295, -22.718338, 14.668213
1649446874.753665, 1.679233, -17.642423, 4.444087, -1.115080, -0.869319, -2.135415, 104.465561, -21.559525, 13.508667
1649446874.786949, -1.641375, -21.386057, 7.594707, -1.323928, -1.943841, -2.145937, 107.011230, -20.281998, 11.462097
1649446874.820476, -1.412579, -15.816695, 5.215768, -1.408059, -2.063956, -2.203473, 110.068481, -18.642578, 8.969406
1649446874.853225, 6.260089, -3.507805, 0.931494, -0.970865, 0.495575, -2.037625, 113.428802, -16.680206, 7.455185
1649446874.887138, 6.361992, -2.855983, 0.835876, 0.006714, 1.079464, -0.739856, 116.180099, -15.904404, 7.554459
1649446874.920451, -2.139070, -2.796428, 3.025223, 0.343285, 1.005592, 0.856323, 118.678802, -17.411331, 9.064972
1649446874.953787, 1.178246, -1.095198, 0.958130, 0.812319, 1.071094, 1.803398, 119.956146, -19.325760, 10.221466
1649446874.987143, 3.814562, -2.968810, 0.690129, 1.151070, 0.435444, 2.804554, 119.620834, -22.962204, 11.175278
1649446875.020270, 3.067721, -4.877887, -0.015562, 1.480517, 0.554227, 3.960846, 117.037964, -29.037811, 12.873337
1649446875.053614, 1.402553, -7.065289, 0.392948, 1.560410, 0.892691, 4.176506, 114.461151, -34.481171, 15.639038
1649446875.086936, 3.064578, -9.928006, 0.016759, 1.673563, 1.716924, 4.355033, 110.561737, -39.634384, 18.674088
1649446875.120256, 3.920954, -12.115558, 1.510442, 1.710297, 2.051051, 4.808885, 103.091354, -46.341064, 23.623840
1649446875.153619, 4.112191, -14.778808, 2.867655, 1.466812, 1.804541, 4.533947, 96.089905, -50.336624, 27.870468
1649446875.186529, 5.026926, -14.100501, 3.981707, 1.278896, 0.836381, 3.579327, 88.825684, -52.421875, 31.626602
1649446875.220261, 6.610391, -11.738920, 1.497573, 0.821391, -0.807243, 1.305146, 83.998367, -53.336456, 34.948944
1649446875.253606, 2.658162, -11.396250, 2.019210, -0.382611, -0.974543, -0.738023, 83.112442, -54.718567, 37.752823
1649446875.286924, 5.385308, -11.968315, -0.842160, -0.944582, -0.350327, -2.212650, 86.698776, -55.861588, 36.675262
1649446875.320256, -7.219565, -14.093618, 3.271976, -0.430899, -1.300522, -1.330271, 90.065964, -56.637573, 36.132523
1649446875.352695, 3.231274, -12.171822, -3.265990, -0.674680, 0.065960, -1.972769, 95.212784, -57.082840, 34.320343
1649446875.386234, 6.105962, -9.411307, 1.554136, -0.033432, 0.467999, -1.931785, 99.150024, -57.092743, 34.815445
1649446875.420300, 4.609287, -10.985046, 2.814085, -0.237645, 0.326342, -1.493589, 101.883072, -56.900787, 34.487091
1649446875.453414, 2.364723, -7.854627, 3.475483, -0.101315, -1.509327, -0.918359, 104.897629, -56.200394, 33.909958
1649446875.486938, 1.601272, -10.490643, 2.087295, -0.221823, -0.404374, -0.813220, 106.555069, -55.974701, 33.794861
1649446875.520274, 2.494160, -9.188796, 1.760187, -0.166868, -0.226594, -0.670324, 108.023056, -55.940536, 33.235840
1649446875.553603, 3.124134, -8.868422, 3.145682, -0.061838, -0.758840, -0.425940, 108.690399, -55.341476, 32.489746
1649446875.586966, 0.604985, -9.332748, 2.779967, -0.147310, -0.506091, -0.512665, 109.955200, -55.271637, 32.079330
1649446875.619651, 1.976114, -8.834754, 2.482787, -0.210675, -0.068974, -0.617374, 111.156082, -54.858887, 31.742523
1649446875.653607, 2.107346, -8.998607, 3.819649, -0.291816, -0.330577, -0.681920, 112.112045, -54.304260, 31.147125
1649446875.686925, 0.358382, -9.771336, 2.413804, -0.381697, -0.139699, -0.830839, 114.032974, -53.748123, 31.024002
1649446875.720286, 2.680009, -9.196577, 2.125752, -0.361019, -0.218064, -0.874968, 115.880692, -53.151520, 30.374176
1649446875.753606, 2.651279, -8.969577, 2.064251, -0.359032, -0.463596, -0.950739, 117.522720, -52.588745, 29.124649
1649446875.786938, 1.263989, -9.822661, 3.093009, -0.511806, -0.091814, -1.114512, 119.576859, -51.653275, 28.204605
1649446875.820306, 2.811840, -9.822811, 2.836530, -0.555745, -0.436720, -1.235758, 121.911758, -50.630203, 27.466324
1649446875.853606, 1.898752, -10.898556, 4.121169, -0.645650, -0.921793, -1.444762, 123.904083, -49.258957, 26.005936
1649446875.886926, -0.632668, -12.778902, 1.936610, -0.885671, -0.964310, -2.206212, 127.801346, -46.709412, 24.033493
1649446875.920262, 1.743577, -18.339285, 3.533393, -0.951674, -1.223806, -2.549239, 131.437897, -43.852402, 22.365082
1649446875.953607, 2.006341, -17.795802, 6.936900, -0.914586, -2.177996, -2.405604, 134.041306, -40.650894, 19.303375
1649446875.986966, -1.569848, -11.641506, 5.452645, -1.281906, -0.564122, -2.614843, 135.721893, -37.474442, 17.159760
1649446876.020278, 8.111256, -9.899725, 1.459266, -0.679499, 0.072137, -1.681031, 138.189377, -33.223648, 18.472427
1649446876.053609, 1.397316, -4.462343, 1.515380, -0.363282, -0.366540, 0.189691, 137.005402, -32.784470, 19.849640
1649446876.086941, -1.392677, -1.717391, 0.344615, 0.208453, 0.709815, 1.411264, 134.499496, -33.908127, 21.902908
1649446876.120273, 0.124798, -1.425149, -0.009128, 0.749091, 1.530016, 2.221262, 129.717102, -36.299774, 27.806915
1649446876.153622, 2.572570, -3.050961, 0.100257, 1.144898, 1.600834, 3.135372, 124.865311, -38.542786, 33.832382
1649446876.186927, 2.959682, -5.966351, 0.849792, 1.358543, 1.425274, 4.278880, 117.905273, -40.382126, 39.425278
1649446876.220274, 2.253093, -7.964312, 1.101931, 1.543821, 1.865394, 4.819199, 107.683792, -40.696457, 47.056305
1649446876.253606, 4.015974, -10.983699, 2.373552, 1.989362, 1.764579, 4.649686, 100.999512, -40.151901, 52.008865
1649446876.286939, 5.739350, -16.354492, 1.997662, 1.962688, 1.577683, 4.589967, 94.352509, -39.112183, 55.876999
1649446876.320324, 11.125855, -15.962741, 2.752434, 0.956455, 0.482985, 3.251397, 88.087448, -38.776016, 57.089600
1649446876.353612, 8.047810, -10.164882, -0.093374, 0.956241, -0.093334, 1.508259, 83.459442, -38.921371, 58.741486
1649446876.386943, 6.045210, -11.074529, 0.743100, 0.086615, -0.644180, -0.357711, 83.111786, -39.345581, 58.525742
1649446876.420272, 6.407333, -10.557083, -0.641197, -0.888511, -0.844897, -1.778582, 84.735458, -40.227448, 56.953079
1649446876.453412, -1.250073, -14.075063, 4.372261, -0.764109, -0.708279, -0.853160, 87.224167, -41.901764, 55.252563
1649446876.486946, 7.704541, -10.106374, -3.218106, -0.583002, 0.978070, -2.532673, 89.397354, -43.055923, 52.784439
1649446876.520271, 9.049783, -8.043769, 0.024690, 0.002840, 0.575919, -1.570354, 90.569031, -43.282211, 51.631439
1649446876.553679, 3.975871, -9.629479, 3.949685, 0.024446, -0.920056, -1.175650, 92.973419, -43.158691, 51.059998
1649446876.586945, 2.570475, -9.643246, 1.594838, -0.119272, -1.137036, -0.692989, 94.695404, -43.264450, 50.636490
1649446876.620267, 2.295590, -9.190442, 1.034744, -0.192474, 0.023398, -0.707981, 95.659805, -43.303360, 49.756943
1649446876.653606, 4.247613, -9.209596, 2.600851, -0.123124, -0.657565, -0.371259, 96.407486, -43.001144, 48.559006
1649446876.686943, 2.176479, -8.784027, 2.228702, -0.152239, -0.788044, -0.286702, 97.646866, -43.138947, 48.390518
1649446876.720286, 1.682076, -8.936657, 2.392556, -0.204099, -0.203242, -0.317475, 98.319839, -42.988510, 47.871887
1649446876.753662, 2.422932, -9.583840, 2.710835, -0.170378, -0.646356, -0.350254, 98.680649, -42.805771, 47.229172
1649446876.786936, 0.991199, -9.240122, 2.338088, -0.267126, -0.244148, -0.489634, 100.020554, -42.845535, 46.715088
1649446876.820277, 2.538452, -9.038411, 2.074426, -0.285461, -0.311377, -0.538418, 100.864105, -42.766891, 46.095627
1649446876.853619, 0.808193, -10.017789, 2.427421, -0.321151, -0.395239, -0.736628, 101.774734, -42.471497, 44.929993
1649446876.886127, 1.843685, -9.673323, 2.261922, -0.397085, -0.336920, -0.935931, 103.432220, -42.264557, 43.580017
1649446876.919766, 1.147571, -10.195558, 3.022530, -0.620503, -0.054971, -1.121950, 104.947189, -41.870773, 42.375580
1649446876.953608, 3.483713, -10.345196, 3.220800, -0.706672, -0.259094, -1.231719, 106.346817, -41.487076, 40.522903
1649446876.986942, 2.395698, -11.628039, 2.495955, -0.892022, -0.143336, -1.521875, 108.509445, -40.425430, 37.565048
1649446877.020282, 0.940023, -13.752594, 2.321627, -1.098482, 0.101126, -1.837126, 111.021454, -39.393478, 35.489075
1649446877.053611, 0.015862, -15.852308, 3.813814, -1.127648, -0.673001, -2.304550, 113.224274, -37.856537, 32.063721
1649446877.086953, 0.909797, -18.161067, 5.684583, -1.133634, -1.444543, -2.220763, 115.556610, -35.658981, 28.148972
1649446877.120279, 0.643142, -11.014225, 3.911677, -1.302814, -1.406327, -2.558580, 118.783447, -32.553543, 22.901291
1649446877.153598, 7.083844, -9.987412, 0.338031, -0.498675, -0.560180, -1.810429, 120.941864, -30.150970, 19.813751
1649446877.186996, 2.536058, -4.693234, 2.085350, 0.009813, 0.063057, -0.299510, 121.247208, -29.292191, 17.927536
1649446877.220274, -1.777096, -1.895160, 2.006191, 0.411227, 0.914856, 0.626996, 120.665543, -30.177536, 17.892502
1649446877.253670, 0.899322, -2.285116, 1.417816, 0.917678, 1.351380, 1.654102, 119.086517, -32.440948, 19.609344
1649446877.286947, 3.135656, -3.811120, 0.772429, 1.342233, 0.482655, 3.079924, 115.250839, -36.031036, 21.421951
1649446877.320272, 3.382708, -5.201702, 0.418985, 1.527645, -0.126752, 4.109525, 106.750854, -40.448013, 23.384430
1649446877.353614, 1.818695, -6.475268, 0.632668, 1.959858, -0.217385, 4.804478, 98.670776, -43.270584, 26.555466
1649446877.386957, -0.850391, -10.115352, 0.827945, 2.653614, 0.931867, 5.155430, 88.531769, -43.829224, 30.148987
1649446877.420266, 2.053626, -15.639075, 1.124826, 2.731334, 2.470932, 4.573370, 75.856461, -40.495651, 34.172546
1649446877.453620, 7.895628, -16.757915, 1.159991, 1.807406, 1.709259, 3.894345, 68.948563, -36.654541, 35.675674
1649446877.486944, 8.337209, -12.510003, 1.023222, 0.900403, 1.363941, 2.356697, 64.104462, -32.826447, 35.303879
1649446877.520334, 8.600122, -11.757775, 0.811036, 0.244569, 0.552314, -0.146903, 62.350952, -31.017700, 33.679245
1649446877.553613, 7.686584, -12.776208, -0.846201, -0.914364, 0.294352, -2.201077, 64.864197, -31.982315, 32.475128
1649446877.586939, -6.985233, -16.118065, 3.033753, -1.388683, -1.342007, -1.420259, 67.504791, -33.310791, 30.433685
1649446877.620281, 6.120926, -10.996718, -3.959261, -0.379825, 0.870452, -2.437605, 70.503036, -34.122391, 28.559921
1649446877.653613, 9.528773, -9.849147, 1.938406, -0.111873, 0.859889, -1.963983, 74.481720, -35.554642, 27.598007
1649446877.686945, 3.715502, -8.715642, 3.780893, -0.046941, -0.004357, -1.389189, 76.404785, -36.096863, 27.708527
1649446877.720334, 2.968212, -10.943597, 1.474679, -0.150345, -1.339483, -0.681671, 77.232513, -36.408157, 27.725372
1649446877.753618, 0.498443, -9.631873, 2.163161, -0.229028, 0.037777, -0.868805, 78.632004, -36.334579, 27.305038
1649446877.786990, 5.373187, -8.671649, 2.460641, -0.145468, -0.726987, -0.468444, 79.529526, -36.682907, 27.586899
1649446877.820283, 0.859369, -9.277681, 2.577508, -0.167519, -0.536938, -0.468231, 79.901825, -36.959091, 27.779099
1649446877.853602, 1.965340, -9.139266, 2.289904, -0.182894, -0.350285, -0.561362, 80.444138, -36.744659, 26.974854
1649446877.886950, 0.944961, -9.426570, 3.391387, -0.248278, -0.325179, -0.671936, 81.711227, -37.170776, 27.218155
1649446877.920290, 2.548478, -10.071359, 2.638111, -0.319588, -0.399050, -0.735763, 82.904724, -37.264206, 26.608444
1649446877.953616, 1.991826, -9.491064, 2.520197, -0.392897, -0.307364, -0.801898, 83.574005, -37.243118, 25.895035
1649446877.986224, 1.194108, -10.061632, 1.985691, -0.439182, -0.401206, -0.899303, 85.256226, -37.165466, 25.305176
1649446878.020284, 1.726519, -9.464728, 1.756446, -0.612709, -0.246716, -1.155414, 86.857681, -37.196030, 24.720184
1649446878.053617, 1.858948, -9.933992, 2.951153, -0.761644, -0.295602, -1.355631, 88.288269, -37.155579, 23.254654
1649446878.086936, 1.752107, -11.620557, 2.831742, -0.947708, -0.310837, -1.558204, 90.790878, -36.679764, 21.546844
1649446878.120287, 0.231789, -13.170503, 2.823512, -1.187812, -0.429445, -1.944579, 93.561798, -36.081238, 19.935669
1649446878.153644, -1.171812, -16.765397, 4.876690, -1.447255, -0.539381, -2.563947, 96.114914, -34.867905, 17.831284
1649446878.186937, 2.981829, -17.737593, 6.763769, -1.218340, -2.303219, -2.106276, 98.564499, -32.731140, 14.654648
1649446878.220284, -0.193033, -12.556540, 2.578106, -1.398789, -2.270029, -1.687349, 99.812103, -30.990845, 12.505936
1649446878.253617, 3.071910, -7.734468, 1.376217, -0.874703, 0.200833, -1.948798, 101.729095, -28.982178, 10.599075
1649446878.286936, 5.558438, -2.669236, 2.453757, 0.090453, 1.171962, -0.883037, 103.501862, -27.026382, 9.986771
1649446878.320283, -1.707814, -2.359336, 0.885555, 0.239212, 0.086713, 0.616484, 103.825134, -25.771057, 10.600784
1649446878.353617, 2.339584, -1.647959, 0.431256, 0.809835, 0.660535, 1.761550, 102.604477, -25.613739, 11.051651
1649446878.386908, 2.054524, -1.820790, 0.289848, 1.163940, 0.764508, 2.701691, 100.609131, -25.414673, 11.638641
1649446878.420286, 2.183961, -3.492991, 0.838270, 1.637658, 1.029080, 3.573839, 97.062561, -25.955307, 13.713425
1649446878.453619, 1.644368, -6.656778, 0.752228, 2.022126, 0.651514, 4.402080, 93.879654, -26.394196, 15.605133
1649446878.486951, 3.415628, -10.436475, 0.828543, 2.111870, 0.926610, 4.893467, 90.290573, -26.281311, 17.133148
1649446878.520282, 1.794305, -15.111303, 0.045340, 2.225217, 2.138388, 4.850879, 86.662048, -25.874969, 19.316391
1649446878.553442, 3.361609, -15.154548, 1.370830, 1.705579, 2.757228, 4.036751, 85.065155, -26.703201, 21.603470
1649446878.586948, 3.585467, -14.975731, 2.764704, 1.509763, 1.951679, 3.040182, 83.232605, -27.282791, 22.987686
1649446878.619651, 12.235867, -12.123040, 0.632668, 0.555670, 0.180049, 1.394423, 81.788223, -28.451340, 23.969482
1649446878.653122, 6.851008, -11.305420, 0.904260, -0.453501, -1.437869, -0.776398, 82.699310, -30.342346, 25.189346
1649446878.686958, 6.155642, -14.915727, 1.230021, -0.602073, 0.225088, -2.024961, 85.140045, -31.689362, 24.756119
1649446878.720293, -2.393453, -17.563115, -2.344372, -1.367806, 0.115380, -3.140090, 87.273315, -32.621170, 23.175873
1649446878.753616, 8.882488, -6.628946, -0.704045, -0.215876, 1.025259, -2.499257, 91.869843, -33.395905, 23.901825
1649446878.786998, 6.074688, -8.038981, 3.246986, -0.064448, -0.207693, -1.450013, 94.083008, -33.738953, 24.383972
1649446878.820282, 3.577985, -9.238476, 2.449268, -0.047288, -1.510241, -0.827502, 95.053757, -33.755310, 23.492676
1649446878.853618, -1.188571, -10.405649, 1.615039, -0.180759, -0.160066, -0.886623, 96.629318, -33.682678, 23.717758
1649446878.886878, 4.033033, -9.321076, 2.555361, -0.128810, -0.383419, -0.652135, 97.632385, -33.777969, 23.847885
1649446878.920298, 3.395427, -8.653243, 3.013701, -0.067472, -0.824799, -0.459704, 97.992722, -33.931381, 23.565613
1649446878.953618, 0.377685, -9.613019, 2.051532, -0.160590, -0.330455, -0.634962, 98.943863, -33.796448, 23.106262
1649446878.986960, 2.482338, -8.918850, 2.776376, -0.184968, -0.511134, -0.709225, 99.894302, -33.855377, 23.493973
1649446879.020333, 1.269525, -9.560197, 2.914342, -0.307707, -0.334177, -0.855986, 100.700195, -33.609787, 22.845306
1649446879.053635, 2.419191, -9.430311, 2.569876, -0.385291, -0.222986, -0.988021, 101.650894, -33.513260, 21.856094
1649446879.086953, 2.129343, -9.413851, 2.280028, -0.425840, -0.365435, -1.023663, 103.523895, -33.247269, 21.701492
1649446879.120286, 2.107346, -9.531018, 1.905934, -0.485077, -0.328760, -1.163965, 104.860779, -33.019547, 21.393097
1649446879.153644, 2.307262, -10.362105, 2.236933, -0.569749, -0.193504, -1.272818, 106.243011, -32.522934, 20.392395
1649446879.186970, 2.729240, -10.873716, 2.761712, -0.690674, -0.361244, -1.404881, 108.398132, -31.763000, 19.463760
1649446879.220298, 1.460912, -12.148478, 2.945018, -0.984590, -0.422574, -1.814248, 110.471878, -30.781525, 18.382095
1649446879.253618, 0.638055, -14.496442, 3.512593, -1.145233, -0.532800, -2.164235, 112.692841, -29.739960, 17.244202
1649446879.286953, 1.300351, -18.768296, 4.929960, -1.106294, -1.080860, -2.285903, 115.699310, -27.838104, 15.156555
1649446879.319557, -0.142305, -16.994343, 5.089923, -1.202623, -2.355807, -1.950755, 117.169189, -26.568359, 12.968109
1649446879.353620, 0.618303, -11.566388, 1.511190, -1.080052, 0.029608, -2.515877, 118.755478, -24.828400, 10.961472
1649446879.386754, 8.075044, -5.484517, 0.883460, -0.368371, 0.098908, -1.409433, 120.189087, -23.150558, 10.462387
1649446879.420273, -0.991199, -2.614767, 2.787749, 0.311479, -0.225866, 0.901200, 120.075592, -24.085693, 11.637665
1649446879.453618, -1.364246, -1.799691, 0.888997, 0.737644, 0.487042, 1.808523, 118.405792, -25.930756, 12.101715
1649446879.486968, 1.455675, -3.160047, 0.399083, 1.140709, 0.948375, 2.766632, 115.671890, -28.387680, 13.457733
1649446879.520275, 2.579154, -4.788703, 0.525827, 1.564540, 1.024961, 3.900289, 110.435074, -32.859100, 17.390350
1649446879.553631, 2.746299, -6.710349, 0.994342, 1.747543, 0.898288, 4.640417, 104.492859, -35.906906, 19.668945
1649446879.586953, 4.394557, -9.496900, 1.913566, 1.964493, 0.526504, 4.960124, 97.246552, -37.823135, 21.694321
1649446879.620286, 3.391087, -13.413964, 0.620996, 2.177839, 1.052347, 5.109337, 87.319092, -38.317749, 25.603485
1649446879.653624, 3.963601, -15.535077, 1.315763, 1.907916, 1.466556, 4.250334, 80.876938, -37.471832, 27.851608
1649446879.686090, 4.615871, -14.441525, 1.861043, 1.677634, 1.288365, 3.404972, 75.475189, -36.112930, 28.694885
1649446879.720274, 8.936058, -11.763311, 2.759916, 1.187237, 0.273606, 2.188521, 71.046768, -34.635635, 30.032181
1649446879.753632, 6.158635, -10.164882, 1.092205, 0.046046, -1.444772, -0.264341, 70.826385, -34.451630, 31.217163
1649446879.786959, 3.912425, -11.282226, -1.801337, -1.009486, -0.095028, -1.933708, 72.587479, -35.273010, 30.428574
1649446879.820347, -11.586290, -16.299126, 1.130063, -0.721839, 1.013129, -1.545987, 75.460541, -36.318069, 27.496826
1649446879.853623, 8.632893, -12.716353, -3.026570, -0.305590, 0.861643, -2.661717, 80.353058, -37.277145, 26.513672
1649446879.886969, 2.717868, -6.797438, 3.645322, -0.361754, 0.682272, -2.413389, 84.167755, -38.215561, 25.978531
1649446879.920288, 8.534581, -8.027908, 4.901380, -0.170329, -0.520722, -1.462605, 86.310547, -38.438202, 25.070236
1649446879.953610, 0.722001, -10.155455, 1.494730, -0.226908, -1.304430, -0.855054, 88.016571, -38.548691, 25.514359
1649446879.986971, -2.415301, -10.094702, 0.601244, -0.341512, 0.577766, -1.198413, 89.756851, -38.422882, 25.106598
1649446880.020297, 6.424990, -8.714295, 4.009540, -0.202621, -0.760261, -0.764688, 90.821304, -38.515808, 23.805801
1649446880.053625, 0.382923, -9.005790, 2.521244, -0.214248, -0.918578, -0.694500, 92.057556, -38.198715, 24.031570
1649446880.086960, 1.226430, -9.697564, 1.710059, -0.284118, -0.376005, -0.840407, 93.545425, -38.479797, 23.780212
1649446880.120297, 2.152387, -9.587730, 2.686893, -0.338579, -0.572855, -0.840653, 94.323105, -38.548767, 22.887589
1649446880.153640, 1.626112, -8.856002, 1.912967, -0.429235, -0.285628, -0.938961, 95.191910, -38.196808, 22.157684
1649446880.186963, 2.699163, -8.457966, 2.030133, -0.470771, -0.145427, -1.000556, 97.447861, -37.736572, 21.957077
1649446880.220278, 3.683479, -9.500342, 1.729511, -0.484912, -0.159561, -0.983153, 98.637558, -37.526169, 20.984406
1649446880.253627, 3.420416, -9.274988, 1.275511, -0.468828, -0.364469, -0.981159, 99.636032, -37.167053, 19.533478
1649446880.286950, 1.864335, -9.817424, 2.085948, -0.620405, -0.105160, -1.198773, 102.032288, -36.428711, 19.496582
1649446880.320294, 3.372832, -10.718242, 2.677166, -0.728644, -0.206168, -1.339242, 103.720505, -35.786835, 17.798401
1649446880.353637, 2.538003, -12.660389, 2.437896, -0.818192, -0.656583, -1.581328, 105.183289, -34.964462, 16.417542
1649446880.386957, 0.237176, -14.678252, 3.153463, -1.057540, -0.787404, -1.984172, 108.063843, -33.262802, 15.013443
1649446880.420311, 1.403900, -19.219005, 5.476287, -1.069072, -1.696305, -1.886408, 110.071701, -31.980881, 13.447540
1649446880.453637, -4.369268, -14.589068, 3.510498, -1.107419, -2.031917, -1.998800, 110.842407, -30.286240, 10.408203
1649446880.486939, 6.072893, -9.693075, 2.050035, -0.844732, -0.372834, -2.187966, 113.710831, -27.405975, 9.441101
1649446880.520294, 6.914454, -6.020370, 0.799065, 0.056792, 0.213358, -0.790594, 115.199982, -26.219757, 10.125427
1649446880.553625, -2.868403, -2.406173, 2.659808, 0.325630, 0.107348, 0.586199, 114.745193, -26.754837, 10.474213
1649446880.586589, -1.025317, -1.785476, 1.105223, 0.712916, 0.615645, 1.485176, 113.012772, -28.013443, 12.081894
1649446880.620292, 2.072630, -3.302053, 0.619649, 1.232712, 1.088214, 2.641819, 110.271820, -30.463959, 15.933502
1649446880.653624, 2.719514, -5.364059, 1.031901, 1.332774, 0.919180, 3.608471, 106.262283, -32.844757, 18.599258
1649446880.686970, 2.989011, -6.864176, 1.321899, 1.491824, 0.848666, 4.335192, 100.250778, -34.752457, 21.827805
1649446880.720302, 2.141464, -8.759037, 1.444452, 1.819225, 1.378763, 4.954674, 92.236862, -35.341751, 26.290192
1649446880.753629, 2.080112, -11.743110, 1.235408, 2.205692, 1.970961, 4.983561, 85.578140, -34.573425, 29.465073
1649446880.786962, 2.771139, -16.915484, 4.111892, 2.072144, 1.865059, 4.432295, 79.703690, -32.331848, 31.391296
1649446880.820288, 10.514137, -16.925659, 3.798700, 1.400904, 0.891094, 3.271366, 74.655136, -29.312073, 33.592087
1649446880.853097, 11.205762, -9.611971, 1.510442, 1.131808, -0.617119, 1.404826, 73.743240, -28.284348, 35.445511
1649446880.886973, 5.468806, -10.970681, -1.005565, 0.022529, -1.542588, -0.714999, 74.829559, -28.669052, 35.714035
1649446880.920295, 3.110367, -13.170803, -3.749469, -1.168720, 1.107724, -2.310227, 77.685364, -29.481644, 35.265579
1649446880.953630, -8.879046, -16.117616, 1.923142, -0.899669, -0.122090, -1.154557, 81.184357, -31.283401, 34.212997
1649446880.987011, 12.015900, -11.364527, 0.546028, -0.479541, 1.561272, -2.781204, 84.751923, -32.802536, 32.776703
1649446881.020297, 6.794445, -5.673360, 1.317559, -0.476907, 0.975407, -1.800288, 87.522934, -33.382385, 31.325851
1649446881.053639, 4.925322, -9.859622, 3.978415, -0.113486, -0.996726, -1.100558, 90.169617, -33.694611, 31.909882
1649446881.086962, -2.264316, -8.890419, 0.728137, -0.170800, -0.438512, -0.846900, 91.266541, -34.055923, 31.304886
1649446881.120322, 0.999280, -10.161291, 2.009633, -0.241751, 0.459663, -1.174803, 92.786819, -34.348831, 30.985504
1649446881.153643, 4.666449, -8.078186, 2.891597, -0.098364, -0.811192, -0.747482, 94.457855, -34.112656, 30.929306
1649446881.186957, 0.098162, -9.528923, 2.199822, -0.154659, -0.279342, -0.843528, 95.854065, -34.366318, 31.185791
1649446881.220295, 3.005471, -8.791209, 2.386570, -0.173026, -0.261059, -0.825272, 96.736832, -34.322586, 30.297684
1649446881.253616, 1.890222, -9.251943, 2.579154, -0.216064, -0.299833, -0.828269, 98.485947, -34.148926, 29.918991
1649446881.286966, 2.362927, -9.153332, 2.087145, -0.211928, -0.297818, -0.845309, 99.696121, -34.315506, 30.074448
1649446881.319671, 2.198625, -9.439290, 2.540547, -0.235741, -0.422978, -0.848250, 100.907639, -34.325226, 29.585526
1649446881.353688, 2.843863, -9.327959, 2.219575, -0.261292, -0.480248, -0.906960, 101.831314, -34.058350, 28.899933
1649446881.386498, 2.084302, -9.757719, 2.704101, -0.354308, -0.551792, -1.034883, 103.832047, -33.868362, 28.249619
1649446881.420295, 1.922095, -10.288034, 2.311302, -0.447738, -0.487121, -1.242035, 105.370117, -33.522079, 27.609818
1649446881.453649, 1.301698, -11.073931, 2.557307, -0.581055, -0.509159, -1.515315, 107.201385, -33.077530, 26.189362
1649446881.486965, 1.835305, -12.466009, 2.684349, -0.837298, -0.689885, -1.949920, 110.602325, -32.489136, 25.114151
1649446881.520295, -0.322319, -15.195250, 4.238635, -1.050199, -0.928716, -2.322823, 113.316223, -31.822372, 23.139206
1649446881.553645, 0.278924, -19.404855, 5.774665, -1.106415, -1.775727, -2.430067, 115.286255, -30.517914, 20.373428
1649446881.586967, -1.883339, -18.357242, 3.922451, -1.536990, -2.686982, -1.791862, 116.305786, -29.463028, 15.646194
1649446881.620287, 4.208109, -10.515483, 0.910096, -1.627113, 0.607312, -2.591105, 117.647095, -28.319077, 13.302536
1649446881.653633, 8.974964, -7.192631, 0.010924, -0.966234, 0.843210, -1.691472, 118.260361, -27.389023, 12.666840
1649446881.686973, 2.365022, -2.029236, 2.741660, -0.007075, 0.235493, 0.802389, 116.621613, -27.814346, 12.759354
1649446881.719451, -2.388366, -1.230919, 0.464026, 0.412467, 0.077037, 1.763779, 112.273422, -30.309586, 13.520172
1649446881.753640, 2.541894, -1.602319, 0.126144, 0.898948, 0.569413, 2.648390, 107.510178, -33.027908, 14.374786
1649446881.786962, 1.530942, -3.811120, 0.598999, 1.258674, 0.707927, 3.966500, 100.807907, -35.081985, 14.897354
1649446881.820309, 1.187973, -6.102820, -0.241515, 1.644322, 0.962655, 4.569998, 90.261139, -36.299255, 17.487823
1649446881.853661, 3.872023, -9.597756, 1.710507, 2.080132, 0.982510, 4.955569, 81.212250, -35.144180, 18.913101
1649446881.886961, 5.452645, -13.106758, 0.947206, 2.192683, 0.503106, 5.368792, 72.474060, -31.654846, 20.275558
1649446881.920303, 5.347449, -13.835493, 0.667234, 2.228179, 0.071122, 5.183404, 63.465286, -23.794220, 22.329803
1649446881.953633, 3.017891, -16.475998, 1.470788, 1.993597, 1.075905, 4.103675, 60.271500, -17.462677, 23.404343
1649446881.986969, 9.246407, -12.338967, -1.523161, 1.290157, 1.401871, 2.510276, 59.515640, -12.685455, 22.495285
1649446882.020285, 9.973496, -11.353454, 0.190189, -0.455788, -0.363319, -1.208105, 61.681900, -10.268738, 22.095947
1649446882.052828, 9.093477, -10.782886, 0.578349, -0.764163, -0.339011, -2.576931, 64.297729, -11.380310, 22.013901
1649446882.087031, -18.487127, -15.364640, 5.908291, -0.596448, -0.922557, -0.966290, 65.935104, -11.059570, 21.780396
1649446882.120298, 10.345944, -14.920814, -5.912182, -0.496128, 0.434654, -2.041231, 68.786057, -11.157135, 20.336563
1649446882.153203, 5.897517, -8.792406, -0.562338, -0.003690, 0.569662, -1.978492, 72.474686, -12.311020, 20.400497
1649446882.187013, 3.682731, -8.492682, 4.779575, -0.030290, 0.881502, -1.637817, 74.461929, -12.958328, 19.551758
1649446882.220298, 6.791901, -9.330054, 2.612673, 0.052778, -1.635597, -0.555700, 75.118301, -13.080124, 19.737625
1649446882.253631, 0.282067, -10.331429, 1.628356, 0.001872, -0.900054, -0.672221, 75.681137, -13.669052, 20.886047
1649446882.286967, 1.901744, -9.422530, 2.424877, -0.047788, -0.208838, -0.626594, 76.550507, -13.913666, 21.195053
1649446882.320292, 2.968361, -9.067141, 3.305495, -0.049788, -0.762657, -0.478525, 76.592682, -13.764267, 20.843018
1649446882.353622, 0.023044, -9.024345, 2.326565, -0.164014, -0.176642, -0.578444, 77.480042, -13.865372, 21.440475
1649446882.386969, 2.046145, -9.750386, 2.780716, -0.187144, -0.257190, -0.642359, 78.136337, -13.980865, 21.194748
1649446882.420313, 0.842011, -9.417592, 2.389264, -0.227403, -0.333178, -0.754767, 78.720154, -14.283585, 20.891281
1649446882.453639, 1.587206, -9.225009, 2.713828, -0.325967, -0.066822, -0.898514, 79.345718, -13.948654, 20.246689
1649446882.486966, 3.185785, -10.101436, 1.984195, -0.310064, -0.250197, -1.011656, 81.248352, -14.432159, 20.467621
1649446882.520304, 1.518822, -9.142409, 1.530793, -0.323407, -0.424262, -0.997989, 81.941223, -14.450897, 20.274780
1649446882.553648, 2.064400, -10.261548, 2.891148, -0.441827, -0.281548, -1.210817, 82.927719, -14.309891, 19.297684
1649446882.586969, 1.153107, -10.970831, 2.843114, -0.631791, -0.180256, -1.403177, 85.272903, -14.425140, 19.080231
1649446882.620305, 2.440589, -11.595867, 3.033454, -0.790144, -0.403370, -1.642508, 86.946533, -14.348633, 18.331772
1649446882.653635, -0.258424, -13.970765, 3.696797, -1.132378, -0.711344, -2.144541, 88.865555, -14.125641, 16.957382
1649446882.686973, -0.349105, -18.373552, 3.967940, -1.146708, -1.338491, -2.453962, 92.384262, -13.503128, 15.790512
1649446882.720170, -2.890699, -18.730139, 5.465962, -1.294634, -2.248994, -2.265444, 94.596512, -13.243408, 13.955765
1649446882.753638, -3.467403, -11.956493, 2.506280, -1.629645, 0.904095, -2.832377, 97.278687, -12.430511, 11.687195
1649446882.786953, 7.565528, -8.397962, 1.760486, -0.808326, 0.948262, -1.776160, 101.823853, -11.376617, 10.921982
1649446882.820303, 3.010110, -1.600075, 4.202123, 0.079547, 1.527075, -0.069967, 104.134109, -11.883636, 11.375366
1649446882.853681, -2.149993, -1.959953, 2.389413, 0.190458, 0.264885, 1.621091, 104.574799, -12.745453, 11.729767
1649446882.886984, 2.441038, -1.934365, 1.755997, 0.543784, 0.340554, 2.625954, 104.170807, -13.991608, 12.246231
1649446882.920311, 3.691260, -3.882348, 1.529895, 0.835675, 0.043689, 3.629210, 102.673660, -17.278809, 14.421875
1649446882.953637, 2.533215, -4.850952, 1.718738, 1.221241, 0.246623, 4.437570, 99.785217, -19.814865, 16.345306
1649446882.987014, 1.733402, -6.804321, 1.619528, 1.868864, 1.391867, 4.643636, 96.776459, -21.908539, 18.891830
1649446883.020290, 4.026898, -12.468853, 2.449717, 2.057960, 1.710741, 4.865364, 92.346619, -24.806442, 23.605957
1649446883.052799, 6.687454, -15.500959, 2.300977, 2.104266, 2.104953, 4.611588, 87.947159, -25.995712, 26.288223
1649446883.087019, 6.654833, -14.379276, 1.095198, 1.636990, 1.158130, 3.784679, 83.451172, -25.471588, 27.961563
1649446883.120293, 9.810092, -12.870779, 1.351976, 1.310983, 0.661234, 2.142531, 79.929062, -24.257111, 30.262558
1649446883.153640, 7.770232, -11.178827, 0.218022, 0.065081, -1.003856, -0.180230, 79.967941, -23.885712, 30.449921
1649446883.187030, 7.295282, -13.123068, -2.742558, -1.012170, -0.241563, -2.216200, 82.247940, -23.557022, 29.128448
1649446883.220319, -14.083442, -15.228020, 2.451812, -1.253608, -0.297174, -1.713590, 84.133698, -23.062210, 27.403534
1649446883.252837, 14.547169, -10.152163, -1.748066, -0.421356, 1.073472, -2.449859, 88.251617, -22.783081, 25.563385
1649446883.286959, 5.786187, -6.727407, 1.920748, -0.157500, 0.088696, -1.547413, 90.215347, -22.183151, 23.908493
1649446883.320304, 5.123741, -9.611822, 3.879056, -0.092619, -1.368208, -1.202605, 91.470566, -21.740234, 22.947815
1649446883.353637, 1.522563, -9.439439, 0.926556, -0.180800, -0.926393, -0.696812, 92.767166, -21.440079, 22.960953
1649446883.386975, 1.097143, -9.398289, 1.378761, -0.228634, 0.049470, -0.745617, 93.440872, -21.135574, 22.087769
1649446883.420279, 3.652953, -8.985588, 2.887407, -0.098340, -0.807238, -0.452484, 93.877701, -20.697617, 21.802124
1649446883.453645, 0.118064, -8.727164, 2.103456, -0.137875, -0.457825, -0.569176, 94.745178, -20.293182, 21.512787
1649446883.487041, 0.741604, -9.752032, 2.426074, -0.223566, -0.173087, -0.702244, 95.024521, -20.052658, 20.880630
1649446883.520373, 1.602469, -9.467571, 2.918981, -0.292873, -0.366081, -0.850429, 95.770309, -19.659256, 20.218018
1649446883.553623, 1.192761, -9.291597, 2.412009, -0.383512, -0.212599, -1.024319, 96.375473, -18.827972, 19.464127
1649446883.586983, 1.002422, -9.602844, 2.511218, -0.451530, -0.209879, -1.195926, 98.212296, -18.435196, 18.968750
1649446883.620309, 3.010559, -9.340379, 2.267908, -0.513097, -0.327456, -1.322133, 99.207047, -17.297150, 18.057037
1649446883.653640, 2.100313, -9.982474, 3.175160, -0.611630, -0.333559, -1.489248, 100.222626, -16.144684, 16.185089
1649446883.686977, 2.450765, -10.813113, 3.092411, -0.738046, -0.378471, -1.590328, 102.310959, -14.920029, 16.227921
1649446883.720296, 2.177676, -12.223597, 2.283320, -0.952436, -0.474969, -1.904578, 103.795288, -13.365646, 14.330093
1649446883.753646, 1.467945, -14.894329, 3.396624, -1.106456, -0.656476, -2.253989, 104.933350, -11.059479, 12.356415
1649446883.786977, -0.850540, -19.216012, 5.966051, -0.981171, -1.242202, -2.571356, 106.653122, -7.741470, 10.302032
1649446883.820306, 0.133177, -15.705813, 6.218041, -0.948959, -2.143566, -2.109985, 107.057434, -5.006287, 7.906204
1649446883.853644, 2.777573, -10.520721, 3.161843, -1.005459, -0.557032, -2.373610, 107.448196, -2.148926, 5.319733
1649446883.887004, 3.148824, -3.594445, 0.754922, -0.138374, 0.267740, -0.709969, 109.317307, -0.262421, 4.632019
1649446883.920281, -3.132514, -1.547402, 2.523788, 0.487024, 0.307877, 0.681874, 110.563675, -0.708008, 4.415268
1649446883.953645, -0.580744, -1.428141, 0.941221, 1.272180, 0.494627, 2.364570, 111.154572, -2.538742, 3.556793
1649446883.986972, 1.488146, -4.726453, 0.959925, 1.636138, 0.310771, 3.313259, 111.419052, -5.584473, 3.456924
1649446884.020322, 1.830666, -7.075464, 0.585682, 1.751805, 0.431395, 4.134565, 111.949097, -11.897598, 5.123428
1649446884.053294, 3.993528, -8.690653, 1.160440, 1.981625, 0.577645, 4.842712, 110.818268, -17.796982, 6.278824
1649446884.086977, 2.449268, -11.417200, 0.444723, 2.242265, 1.357747, 5.017684, 108.371368, -24.817871, 8.749893
1649446884.120310, 2.210896, -14.354286, 0.395941, 2.280063, 2.526039, 4.548422, 103.757751, -33.913910, 16.319427
1649446884.153640, 3.325097, -15.005060, 2.466327, 1.581402, 3.244353, 3.774074, 98.064056, -39.120804, 21.315720
1649446884.186989, 7.008128, -15.135993, 4.412065, 1.032664, 2.371236, 3.337067, 90.497864, -41.368729, 24.320068
1649446884.220312, 9.187300, -9.853038, 2.576311, 0.781192, -0.785505, 1.618545, 83.223892, -42.223572, 27.315216
1649446884.253628, 4.874595, -10.439916, 0.566678, -0.487756, -1.256860, -1.107637, 82.045944, -42.663483, 28.077484
1649446884.286979, 4.556914, -10.360010, -1.698387, -0.699628, -0.124557, -1.934375, 83.052261, -43.334000, 26.653809
1649446884.320306, -1.772607, -14.956877, 5.288791, -0.521565, 2.102217, -2.127298, 85.620483, -43.943542, 25.158875
1649446884.353657, 3.418172, -15.569344, -3.006219, -1.050217, -0.530516, -2.378714, 88.536209, -44.135483, 23.888153
1649446884.387000, 7.613711, -10.235062, 0.997634, -0.242632, -0.274927, -2.115472, 91.200089, -43.513062, 23.144867
1649446884.420201, 2.777124, -7.750330, 3.478775, -0.090999, 0.399272, -1.621203, 93.461502, -43.429764, 22.471436
1649446884.453718, 4.292205, -9.998485, 4.497657, -0.288820, -1.008943, -1.089975, 95.736618, -43.055969, 22.982590
1649446884.486980, 1.719785, -10.086023, 1.269077, -0.205638, -1.151060, -0.802736, 96.236954, -42.938507, 22.244888
1649446884.520329, 0.779762, -9.006089, 1.467646, -0.201241, -0.127454, -0.937774, 97.127533, -42.172806, 21.098923
1649446884.553648, 3.604920, -8.640674, 3.464111, -0.112269, -0.584207, -0.693424, 98.488037, -41.848160, 21.527771
1649446884.586980, 0.664391, -9.010578, 2.980482, -0.195524, -0.544949, -0.738894, 99.201904, -41.687714, 21.235855
1649446884.620310, 1.186626, -9.645191, 2.630031, -0.263243, -0.266829, -0.861116, 99.744446, -41.092621, 20.336716
1649446884.653630, 1.990180, -8.896554, 2.624793, -0.313588, -0.462045, -0.925924, 101.153122, -40.295120, 19.992279
1649446884.686964, 1.188571, -9.370905, 2.460940, -0.395577, -0.282585, -1.106970, 102.613068, -39.982849, 19.307236
1649446884.720310, 3.528904, -9.760711, 2.419490, -0.397049, -0.567501, -1.139714, 103.431595, -39.237427, 18.708084
