SamplingTime, AccelerationX, AccelerationY, AccelerationZ, GyroX, GyroY, GyroZ, MagneticFieldX, MagneticFieldY, MagneticFieldZ
1649447291.082729, -1.171214, -9.671976, 1.192163, 0.002649, 0.012579, -0.000515, 89.004333, -44.212387, 53.171112
1649447291.116094, -1.044470, -9.655067, 1.287183, 0.002347, 0.023816, 0.001250, 89.028976, -44.128662, 53.380585
1649447291.149432, -1.010652, -9.659407, 1.244686, 0.003613, 0.010678, 0.005752, 89.110489, -44.423279, 53.062592
1649447291.182757, -1.088913, -9.640403, 1.219247, 0.004423, 0.011859, 0.008478, 89.035980, -44.340714, 53.209427
1649447291.216085, -1.139640, -9.654469, 1.271770, -0.001112, 0.002266, 0.003405, 88.976288, -44.304047, 53.088913
1649447291.249317, -1.044321, -9.647735, 1.255160, -0.000304, 0.006355, -0.000639, 89.003036, -44.223953, 53.262650
1649447291.282795, -1.151761, -9.652224, 1.264587, -0.000791, 0.002993, -0.001816, 88.946136, -44.165756, 53.109039
1649447291.316140, -1.129764, -9.654169, 1.206378, 0.000519, 0.010156, -0.005072, 89.005753, -44.210129, 53.100998
1649447291.349437, -1.007510, -9.695469, 1.276558, -0.004692, 0.009321, -0.002975, 89.040955, -44.145630, 53.191574
1649447291.382642, -1.241244, -9.655666, 1.249474, -0.002582, 0.002634, 0.003756, 89.051056, -44.074005, 53.057999
1649447291.415583, -1.123329, -9.674221, 1.220444, -0.004741, -0.001487, -0.005806, 89.193924, -44.106567, 53.052139
1649447291.448628, -1.145775, -9.661651, 1.276109, -0.004004, 0.003901, -0.014178, 89.006073, -44.184052, 53.210052
1649447291.482743, -0.988506, -9.660005, 1.252317, -0.006148, -0.007206, -0.008552, 88.967926, -44.193161, 53.503082
1649447291.516050, -1.002422, -9.670779, 1.170465, -0.003306, -0.011392, 0.006520, 89.178116, -44.177170, 53.261063
1649447291.549418, -0.966360, -9.677064, 1.216554, -0.004001, -0.025023, 0.009299, 89.295502, -44.185501, 53.270508
1649447291.582518, -1.241094, -9.689633, 1.117045, 0.009345, -0.029332, 0.007950, 89.250397, -44.148285, 53.019958
1649447291.615209, -1.187075, -9.602095, 1.105074, 0.026266, -0.010415, -0.008640, 89.251617, -44.428238, 52.934555
1649447291.649411, -1.118691, -9.644293, 1.194557, 0.039401, 0.003658, -0.029410, 89.216354, -44.090637, 52.802536
1649447291.682746, -1.128417, -9.660005, 1.196652, 0.051228, -0.001791, -0.038716, 89.144165, -44.118698, 53.043579
1649447291.716073, -1.108964, -9.622446, 1.272967, 0.060545, -0.002404, -0.041803, 89.268173, -44.231842, 53.299210
1649447291.749418, -1.048810, -9.655666, 1.262044, 0.064021, 0.008087, -0.046058, 89.591812, -43.958054, 53.368698
1649447291.782756, -1.054646, -9.648932, 1.354520, 0.068285, 0.001235, -0.045425, 89.530411, -44.183105, 53.339249
1649447291.816075, -1.068263, -9.661352, 1.336264, 0.063564, 0.004679, -0.054872, 89.668594, -44.022217, 53.753952
1649447291.849414, -1.074248, -9.654469, 1.356016, 0.063217, 0.004801, -0.076813, 89.796509, -43.983063, 53.900238
1649447291.882733, -1.183334, -9.602245, 1.359308, 0.071015, 0.050206, -0.090273, 89.896194, -43.810944, 54.106049
1649447291.916056, -0.901417, -9.662998, 1.449839, 0.064266, 0.040821, -0.096259, 90.133682, -44.083298, 54.272659
1649447291.949402, -0.817321, -9.669582, 1.444003, 0.068259, 0.043716, -0.083052, 89.898865, -43.686600, 54.623688
1649447291.982742, -0.702997, -9.662250, 1.456572, 0.052408, 0.027359, -0.062804, 90.249771, -43.768478, 54.089752
1649447292.016077, -0.764349, -9.734225, 1.466299, 0.050484, 0.035464, -0.043355, 90.369247, -43.709869, 54.546539
1649447292.049410, -0.725593, -9.648333, 1.445948, 0.047618, 0.011894, -0.023950, 90.332596, -43.664383, 54.442047
1649447292.082728, -0.891391, -9.637111, 1.542315, 0.046685, 0.040199, -0.030048, 90.338013, -43.669724, 54.421234
1649447292.116072, -0.910246, -9.619902, 1.685518, 0.024019, -0.000040, -0.042131, 90.538544, -43.554260, 54.477966
1649447292.149391, -1.070807, -9.663896, 1.616236, 0.013657, -0.003264, -0.071693, 90.599731, -43.694122, 54.341995
1649447292.182721, -1.035642, -9.595661, 1.499369, 0.016260, 0.052108, -0.105581, 90.708313, -43.650146, 54.544449
1649447292.216056, -0.746692, -9.604190, 1.599027, 0.005263, 0.053233, -0.115158, 90.948547, -43.623871, 54.695358
1649447292.249382, -0.757017, -9.656115, 1.553987, -0.001761, 0.062235, -0.117712, 91.073318, -43.770645, 54.649353
1649447292.282701, -0.645088, -9.598055, 1.563264, -0.003815, 0.076287, -0.118755, 91.444519, -43.707718, 54.471085
1649447292.316056, -0.593463, -9.710134, 1.524658, -0.012022, 0.058279, -0.107914, 91.294998, -43.495834, 54.731644
1649447292.349404, -0.577751, -9.640852, 1.446846, -0.008866, 0.061252, -0.097966, 91.502777, -43.382309, 54.702881
1649447292.382734, -0.292691, -9.663596, 1.465401, -0.002101, 0.041163, -0.067470, 91.322922, -43.292435, 54.676468
1649447292.416077, -0.331298, -9.714773, 1.413626, 0.003700, 0.021606, -0.028172, 91.564392, -43.369370, 54.611069
1649447292.449444, -0.227599, -9.651177, 1.541417, -0.001322, -0.026767, 0.008502, 91.572037, -43.415146, 54.628448
1649447292.482714, -0.598401, -9.706094, 1.402853, 0.001718, -0.042683, 0.024649, 91.667786, -43.309753, 54.352463
1649447292.516074, -0.783203, -9.642348, 1.532888, -0.000855, 0.001788, 0.003481, 91.676666, -43.440857, 54.396759
1649447292.549457, -0.976984, -9.624391, 1.649006, -0.013636, 0.045620, -0.039073, 91.579514, -43.216690, 54.248901
1649447292.582707, -0.904709, -9.593716, 1.570746, -0.016036, 0.041901, -0.079577, 91.860062, -43.585449, 54.268158
1649447292.616051, -0.430807, -9.640253, 1.440262, -0.017076, -0.008328, -0.089461, 91.721939, -43.468323, 54.375443
1649447292.649439, -0.313640, -9.679308, 1.442357, -0.017405, -0.024943, -0.072136, 92.051773, -43.464523, 54.449570
1649447292.682699, -0.203058, -9.712229, 1.458518, -0.017456, -0.036659, -0.037443, 92.097488, -43.542282, 54.262711
1649447292.716040, -0.215927, -9.740959, 1.469292, -0.014951, -0.034940, 0.014002, 91.941254, -43.472702, 54.523590
1649447292.749376, -0.362422, -9.723302, 1.423503, -0.012420, -0.037843, 0.030382, 92.109070, -43.369934, 54.783630
1649447292.782708, -0.731878, -9.667038, 1.494580, -0.001617, 0.025191, 0.023321, 91.980103, -43.626831, 54.669968
1649447292.816033, -0.687286, -9.642198, 1.517176, -0.000140, 0.057288, -0.005535, 91.914215, -43.580780, 54.637268
1649447292.849431, -0.526425, -9.666140, 1.445799, 0.000678, 0.053925, -0.023664, 92.029953, -43.348434, 54.524506
1649447292.882718, -0.548571, -9.634267, 1.438616, 0.001378, 0.040374, -0.027833, 91.943863, -43.571487, 54.376373
1649447292.916035, -0.529418, -9.688736, 1.331176, 0.024984, 0.076725, -0.029412, 92.037521, -43.532120, 54.571671
1649447292.949400, -0.384120, -9.684845, 1.463306, 0.023302, 0.078613, -0.027014, 91.922302, -43.598083, 54.508606
1649447292.982712, -0.358382, -9.711780, 1.484255, 0.017170, 0.029949, -0.016793, 91.920807, -43.370636, 54.716644
1649447293.015761, -0.504428, -9.651625, 1.452383, 0.017450, 0.019439, -0.019569, 92.076782, -43.653488, 54.338272
1649447293.048763, -0.649278, -9.687838, 1.437868, 0.028703, 0.067150, -0.039674, 92.128204, -43.412323, 54.519592
1649447293.081757, -0.495450, -9.663746, 1.683573, 0.017784, 0.032690, -0.051385, 92.032684, -43.269302, 54.432205
1649447293.116030, -0.261567, -9.687090, 1.738490, -0.013903, -0.101173, -0.044463, 92.313065, -43.468109, 54.686371
1649447293.149365, -0.358681, -9.752631, 1.270274, 0.004850, -0.027626, -0.036440, 92.343262, -43.231400, 54.594437
1649447293.182666, -0.363619, -9.630975, 1.485901, 0.009793, -0.015540, -0.028380, 92.387115, -43.355789, 54.604721
1649447293.216026, -0.433201, -9.666888, 1.456722, 0.016510, 0.007905, -0.031145, 92.547424, -43.548553, 54.796356
1649447293.249358, -0.461632, -9.708637, 1.549198, 0.019225, 0.033451, -0.038116, 92.376862, -43.193726, 54.687637
1649447293.282694, -0.391901, -9.700258, 1.593192, 0.013187, 0.028249, -0.044538, 92.447418, -43.303604, 54.741714
1649447293.316031, -0.396989, -9.664494, 1.475127, 0.013216, 0.037459, -0.051104, 92.534912, -43.193237, 55.006577
1649447293.349359, -0.196474, -9.679907, 1.522114, 0.014137, 0.013695, -0.038539, 92.620163, -43.425232, 54.810669
1649447293.382693, -0.083348, -9.703101, 1.499070, 0.022101, -0.000952, -0.014446, 92.442520, -43.260834, 54.668350
1649447293.416022, -0.020949, -9.694123, 1.528698, 0.013617, -0.039423, 0.020020, 92.399353, -43.265366, 54.950806
1649447293.449352, -0.391003, -9.674221, 1.460313, 0.026188, -0.000269, 0.032737, 92.642319, -43.250305, 55.092453
1649447293.481893, -0.303914, -9.681104, 1.634192, 0.021080, 0.001029, 0.032230, 92.578964, -43.296860, 55.293411
1649447293.516024, -0.367510, -9.693374, 1.680730, 0.007550, -0.022956, 0.035664, 92.639236, -43.210007, 54.987076
1649447293.549359, -0.355090, -9.719112, 1.541716, 0.003332, -0.007606, 0.034725, 92.502151, -43.100708, 55.264221
1649447293.582685, -0.369156, -9.658808, 1.642123, -0.005807, -0.020745, 0.031410, 92.526352, -43.226593, 55.124100
1649447293.616029, -0.524480, -9.642049, 1.523760, -0.009756, -0.009483, 0.011794, 92.547028, -43.209229, 55.007004
1649447293.649366, -0.480786, -9.663896, 1.570746, -0.006799, -0.001591, 0.000460, 92.512314, -43.244476, 54.769669
1649447293.682688, -0.319776, -9.648782, 1.599626, -0.018724, -0.026734, 0.001880, 92.515488, -43.558334, 55.210236
1649447293.716029, -0.392200, -9.655666, 1.564162, -0.020605, -0.029755, 0.000610, 92.556549, -43.334396, 54.703278
1649447293.749350, -0.443376, -9.686491, 1.511639, -0.017351, -0.004742, -0.006947, 92.581131, -43.213425, 54.955276
1649447293.782672, -0.348057, -9.690531, 1.543213, -0.018896, 0.005362, -0.011635, 92.488892, -43.517105, 55.008438
1649447293.816034, -0.345364, -9.682451, 1.593491, -0.023308, -0.017864, -0.010753, 92.532501, -43.409882, 54.994080
1649447293.849419, -0.428263, -9.680506, 1.510442, -0.024963, -0.022270, -0.013599, 92.524612, -43.389893, 54.734818
1649447293.882667, -0.518794, -9.680805, 1.450587, -0.014315, 0.018537, -0.031757, 92.637726, -43.434753, 54.860428
1649447293.916039, -0.255431, -9.682152, 1.511789, -0.013970, -0.000888, -0.029199, 92.760605, -43.505859, 54.788483
1649447293.949359, -0.299574, -9.660005, 1.467346, -0.005905, -0.008860, -0.013757, 92.702408, -43.430222, 54.870682
1649447293.982695, -0.354641, -9.758616, 1.429189, 0.004224, 0.009073, -0.019454, 92.877991, -43.403824, 55.027466
1649447294.016037, -0.313341, -9.676166, 1.503110, -0.000113, 0.018867, -0.031114, 92.642105, -43.470734, 54.838715
1649447294.048793, -0.370353, -9.678411, 1.533037, -0.004337, 0.018179, -0.036952, 92.810867, -43.395645, 54.973953
1649447294.082673, -0.377835, -9.731532, 1.519121, -0.002401, 0.007282, -0.045422, 92.944702, -43.237167, 54.990692
1649447294.115992, -0.219369, -9.675867, 1.491288, 0.007183, -0.006306, -0.043751, 92.953156, -43.439255, 54.969009
1649447294.149370, -0.154725, -9.736769, 1.508796, 0.008869, -0.027233, -0.026869, 93.015640, -43.194885, 55.348022
1649447294.182672, -0.198270, -9.652972, 1.484555, 0.007637, -0.027034, -0.021977, 93.186615, -43.227798, 54.955170
1649447294.216003, -0.506523, -9.680206, 1.451485, 0.026657, -0.020237, -0.044926, 93.116409, -43.138809, 55.055817
1649447294.248583, -0.367809, -9.555109, 1.333271, 0.045014, -0.050948, -0.060803, 93.144821, -43.191452, 55.236893
1649447294.282668, -0.048931, -9.679608, 1.579126, 0.041111, -0.068012, -0.068897, 93.356354, -43.298920, 55.128220
1649447294.315999, -0.104297, -9.594464, 1.452981, 0.036924, -0.113948, -0.071975, 93.775574, -43.298187, 55.330460
1649447294.349330, -0.696413, -9.637560, 1.388487, 0.068981, 0.004983, -0.113245, 93.807999, -43.251587, 55.549057
1649447294.382680, -0.608726, -9.569774, 1.325789, 0.110835, 0.093433, -0.166522, 94.262619, -43.035278, 55.557861
1649447294.416027, -0.182857, -9.631724, 1.307982, 0.151470, 0.140663, -0.182782, 94.266052, -42.807327, 56.004288
1649447294.449329, 0.151433, -9.606136, 1.825878, 0.187479, 0.120893, -0.145229, 94.652725, -42.747208, 56.224365
1649447294.482667, 0.280720, -9.611074, 1.427992, 0.217221, 0.065831, -0.132200, 94.820068, -42.538071, 56.600250
1649447294.516000, -0.855628, -9.665242, 1.548001, 0.285127, 0.246271, -0.117562, 94.848373, -42.423660, 56.909760
1649447294.549340, 1.253514, -9.714174, 2.180220, 0.187626, 0.015485, -0.052274, 94.605698, -42.168930, 57.287033
1649447294.582726, -0.014066, -9.506627, 2.013823, 0.171122, 0.110589, -0.035134, 94.644974, -42.139023, 57.728043
1649447294.615761, 0.332495, -9.520244, 1.907730, 0.161655, 0.055410, -0.037636, 94.508514, -41.824295, 57.659012
1649447294.648944, 0.197821, -9.518448, 2.001403, 0.172717, 0.149811, -0.048203, 94.681717, -41.691925, 58.076462
1649447294.681932, 0.556203, -9.565733, 2.097321, 0.172350, 0.119437, -0.023828, 94.713486, -41.502853, 58.278809
1649447294.715993, 0.029928, -9.478794, 2.002151, 0.182799, 0.159782, -0.026028, 94.548721, -41.253448, 58.705597
1649447294.749323, 0.117166, -9.530569, 2.020557, 0.210628, 0.166579, -0.017278, 94.379013, -41.314133, 58.972687
1649447294.782664, 0.320823, -9.594015, 2.279729, 0.217442, 0.157394, 0.009481, 94.213150, -41.226822, 59.316162
1649447294.815880, 0.377985, -9.547478, 2.455553, 0.222080, 0.037673, 0.040048, 94.206192, -40.817261, 59.545120
1649447294.848843, -0.519991, -9.457396, 2.477251, 0.218328, 0.120309, -0.022616, 94.144882, -40.646317, 59.896927
1649447294.882646, 0.013018, -9.513809, 3.138050, 0.124187, 0.012341, -0.053824, 94.253769, -40.693069, 60.110703
1649447294.916011, -0.021847, -9.515306, 2.671031, 0.099240, 0.005821, -0.078818, 94.363541, -40.732712, 60.294754
1649447294.949319, -0.299574, -9.433903, 2.758869, 0.091992, -0.057243, -0.138222, 94.690811, -40.532379, 60.360687
1649447294.982655, -0.118064, -9.412205, 2.371606, 0.105419, -0.036907, -0.194617, 95.023239, -40.332565, 60.111282
1649447295.015795, 0.410755, -9.233538, 2.754679, 0.113296, -0.043012, -0.189493, 95.372101, -40.224808, 60.181763
1649447295.049316, -0.064344, -9.400982, 2.506430, 0.116666, -0.016562, -0.230010, 95.639023, -40.080841, 60.933289
1649447295.082650, 0.039953, -9.282469, 2.907908, 0.091207, -0.179421, -0.323138, 96.097565, -39.751236, 61.033783
1649447295.115983, -0.332195, -9.337835, 2.909853, 0.088670, -0.180942, -0.425296, 97.338120, -39.660461, 61.406647
1649447295.149238, -0.119560, -9.458294, 2.688838, 0.124472, 0.051450, -0.469551, 97.915756, -39.473755, 61.314041
1649447295.182721, 0.574459, -9.265560, 2.815731, 0.150235, -0.006807, -0.517775, 98.527420, -39.110962, 61.856720
1649447295.215983, 0.278176, -9.423278, 2.408268, 0.187342, 0.230994, -0.504607, 99.348038, -38.810379, 62.190903
1649447295.249323, 2.156876, -9.976339, 3.314623, 0.133925, 0.058225, -0.419494, 99.673462, -38.510529, 62.407181
1649447295.281755, 0.645237, -9.539397, 2.984522, 0.102410, -0.259509, -0.478540, 100.522018, -38.018524, 62.563446
1649447295.315980, 0.660800, -10.417321, 3.286191, 0.094090, -0.349159, -0.718806, 101.471634, -37.602127, 62.794785
1649447295.349310, 0.551115, -11.304971, 3.356521, 0.090840, -0.550678, -0.747521, 103.233505, -36.841125, 62.641815
1649447295.382710, 0.956484, -10.741286, 2.882918, 0.047209, -0.641397, -0.917846, 105.011307, -36.226700, 62.402695
1649447295.415007, 0.187945, -10.321703, 3.308637, 0.023803, -0.709480, -1.086940, 106.565262, -35.140274, 62.177322
1649447295.449377, -0.262764, -10.843190, 3.294421, -0.031304, -0.619506, -1.315138, 109.288879, -33.931839, 61.885803
1649447295.482648, -0.245705, -10.972327, 2.605490, -0.071406, -0.589896, -1.609464, 111.507538, -32.552811, 61.378326
1649447295.515975, -0.791583, -11.667244, 1.774253, -0.133777, -0.660751, -2.087595, 113.948273, -30.940002, 60.766251
1649447295.549307, 0.065691, -11.542147, 1.506252, -0.109880, -1.078579, -2.290465, 118.227905, -28.441742, 59.546875
1649447295.582669, 0.450409, -11.213842, 1.333570, -0.056416, -1.593548, -2.329350, 121.454071, -26.140717, 58.230499
1649447295.615968, -0.569670, -11.791294, 2.981230, -0.109721, -1.847072, -2.411969, 124.794724, -23.441681, 56.582947
1649447295.649068, 0.163554, -11.012579, 2.746000, -0.044063, -1.348559, -2.075032, 127.741745, -20.978165, 54.745255
1649447295.682707, 2.300229, -9.649979, 4.006397, 0.508339, -0.798554, -0.989454, 129.580368, -18.955231, 54.099564
1649447295.715953, -2.927360, -8.627955, 2.353800, -0.103878, -0.855434, 0.668325, 129.478668, -18.897842, 53.343079
1649447295.749299, 0.829441, -8.137143, 0.789488, 0.173517, 0.483917, 1.803683, 127.581894, -20.823227, 53.396515
1649447295.782436, 4.024054, -8.705766, 1.279850, 0.071361, 0.761828, 2.665970, 121.894638, -24.622955, 55.076279
1649447295.815955, 2.418593, -7.375488, 0.437241, -0.015777, 1.217413, 3.956844, 115.580368, -27.592072, 56.072769
1649447295.849305, 3.582474, -7.192631, 1.116147, -0.077708, 1.229206, 4.775417, 107.608231, -29.709061, 56.682556
1649447295.882633, 3.278261, -7.730877, 0.855628, -0.255636, 0.860381, 5.413719, 95.944565, -30.424423, 55.874741
1649447295.915589, 3.579631, -9.009530, 0.717812, -0.493956, 0.673551, 5.818496, 87.505478, -28.361816, 54.951477
1649447295.948546, 2.903568, -12.253374, 1.070956, -0.663289, 1.726861, 5.696442, 80.089417, -25.049149, 53.357040
1649447295.982615, 5.277868, -13.794343, 2.577807, -0.702766, 1.560280, 4.851717, 74.048874, -20.348938, 50.986740
1649447296.015960, 6.551434, -13.481001, 3.868282, -0.301288, 0.832857, 3.437325, 72.338806, -17.813889, 49.940521
1649447296.049305, 7.419631, -11.698219, 4.286369, 0.243424, -0.387964, 0.596323, 72.583969, -16.245636, 49.973328
1649447296.082628, 3.961805, -10.187927, 2.992752, 0.218276, -0.009209, -1.931451, 74.797531, -16.591385, 50.520523
1649447296.115961, 2.941426, -11.068394, 2.273145, 0.281247, 0.069657, -2.171022, 78.885284, -17.598190, 50.517273
1649447296.149007, -8.983942, -23.566725, -2.066196, 0.662343, 1.484635, -3.474829, 82.318008, -18.650528, 51.454300
1649447296.182624, 12.207286, -4.569484, -0.294786, 0.892694, 0.592729, -2.488199, 84.772705, -19.571411, 52.054062
1649447296.215824, 1.028160, -10.065074, 4.929661, 0.605360, 0.096586, -1.959351, 88.050888, -20.055222, 53.013596
1649447296.249126, 3.017592, -10.541071, 1.559373, 0.286764, -0.472594, -1.317212, 90.401657, -20.118515, 53.359070
1649447296.282158, 1.755548, -10.153959, 1.800440, 0.450280, 0.057899, -1.011501, 91.778671, -20.214188, 53.870071
1649447296.315142, 0.908300, -9.717915, 3.538630, 0.246927, -0.269357, -0.815180, 92.757767, -19.853622, 53.967758
1649447296.349286, -0.182259, -9.490915, 2.410512, 0.177013, -0.272905, -0.750117, 94.402130, -19.841782, 54.382690
1649447296.382617, -1.343147, -9.335441, 1.693898, 0.311344, 0.153977, -0.858136, 95.254196, -19.569916, 54.662415
1649447296.415952, -1.004667, -9.030779, 3.224990, 0.268827, -0.020415, -0.961006, 96.063202, -19.261246, 54.746826
1649447296.449296, -0.771681, -9.658509, 1.532139, 0.320962, 0.059650, -1.127994, 98.052780, -19.127045, 55.261780
1649447296.482017, 0.057311, -9.970204, 1.834258, 0.376676, -0.073637, -1.337155, 99.329453, -18.541702, 55.640030
1649447296.515950, 1.739537, -9.735423, 3.595642, 0.339910, -0.252554, -1.348379, 101.182739, -18.183853, 55.823303
1649447296.549283, 1.661127, -11.123760, 3.332579, 0.306972, -0.738331, -1.326255, 103.602463, -17.756805, 56.094574
1649447296.582613, -1.371578, -12.165088, 1.136198, 0.275570, -0.694300, -1.680969, 106.104523, -17.441513, 55.867783
1649447296.615961, -0.366612, -12.988544, 0.882114, 0.166809, -0.447439, -2.160851, 108.602875, -16.970398, 55.901917
1649447296.648804, -0.634763, -12.372486, 2.477999, 0.097466, -0.473807, -2.519137, 112.497543, -16.301804, 55.551758
1649447296.682550, -1.215656, -11.849203, 3.706075, 0.125598, -1.178661, -2.894033, 116.217743, -15.654922, 54.750076
1649447296.715944, -2.152836, -16.350901, 2.796128, 0.081803, -1.414834, -3.194037, 120.189438, -14.598236, 53.983627
1649447296.749271, -4.554969, -17.793856, 1.947982, -0.009737, -2.037772, -3.233860, 126.190231, -13.172226, 51.162155
1649447296.781653, -1.145775, -13.239037, 3.844190, -0.204345, -2.474467, -2.727145, 130.301956, -12.231644, 47.945663
1649447296.815954, 2.025046, -9.277980, 2.039261, 0.249048, -0.857763, -1.185378, 132.584381, -12.232315, 45.922638
1649447296.849085, 6.933907, -11.036970, 2.655469, 0.110376, -0.479792, -0.096102, 132.650543, -13.309769, 45.376434
1649447296.882266, -1.185429, -4.203021, 0.944064, 0.316807, 0.209991, 1.572642, 130.460510, -17.736343, 44.281021
1649447296.915802, 5.724536, -6.604555, 1.146224, 0.184406, 1.216080, 2.902491, 126.303864, -21.537170, 45.242722
1649447296.949272, 4.813542, -6.060772, 1.114501, -0.209668, 0.845696, 3.938280, 120.827911, -25.566055, 45.816467
1649447296.981904, 4.017620, -6.374562, 0.133177, -0.185655, 1.090203, 4.655431, 111.400314, -30.214752, 45.634277
1649447297.015967, 2.991555, -7.903709, 0.839467, -0.192185, 0.906180, 5.308787, 103.455170, -31.969147, 45.771713
1649447297.049268, 3.433435, -8.644265, 0.679355, -0.251544, 0.588014, 5.493348, 95.870178, -32.355331, 45.875107
1649447297.082590, 2.669684, -8.890569, 1.074398, -0.213302, 0.719995, 5.458393, 86.779831, -31.356766, 46.055023
1649447297.115934, 3.044976, -10.974871, 2.388067, -0.501273, 0.325179, 4.884421, 81.523987, -29.693588, 46.366501
1649447297.149268, 3.038990, -11.890653, 1.936909, -0.194515, 0.573130, 4.243678, 76.907806, -27.791351, 47.186844
1649447297.182603, 3.677943, -12.192622, 2.350657, 0.196885, 0.468384, 3.023226, 73.329056, -26.048508, 48.507248
1649447297.215920, 4.490475, -10.259603, 2.495955, 0.315847, 0.366307, 0.697676, 71.106613, -24.454544, 50.883118
1649447297.249275, 4.824316, -8.960150, 1.328333, 0.394402, 1.219893, -1.510942, 71.405502, -24.161682, 52.158264
1649447297.282602, 1.351976, -13.799131, 6.698976, 1.045453, 1.444726, -2.849792, 72.769135, -24.585281, 52.988052
1649447297.315964, -29.905823, -43.224917, -7.227496, -0.522311, 2.369662, -5.261351, 77.640869, -26.532028, 54.232849
1649447297.348417, 11.523742, -2.606089, 3.759944, 1.594143, 1.163080, -2.609823, 79.842255, -26.400436, 55.266159
1649447297.382592, 6.578668, -12.751219, 3.706374, 0.490102, -0.437501, -2.103192, 82.289810, -25.956299, 56.422089
1649447297.415923, 5.877615, -10.736498, 0.274884, 0.565363, 0.131591, -1.539691, 84.961746, -25.837173, 57.564392
1649447297.449273, 5.563077, -10.400711, 3.177555, 0.330662, -0.650485, -0.834276, 86.127457, -25.287277, 57.855988
1649447297.481955, -0.988955, -10.218303, 2.394501, 0.235287, -0.483488, -0.695575, 87.831024, -25.034164, 58.403488
1649447297.515928, 1.542315, -10.670209, 3.339163, 0.091880, -0.627140, -0.646116, 88.939453, -25.043777, 58.304688
1649447297.549289, -1.919701, -10.324995, 2.415899, 0.189113, -0.647281, -0.732901, 90.846207, -24.962830, 59.071945
1649447297.582659, -2.025495, -9.102007, 1.701828, 0.161141, -0.313059, -1.028679, 92.091599, -24.598450, 58.858093
1649447297.615939, 0.800262, -8.062474, 2.541295, 0.144672, -0.242726, -1.137625, 93.559662, -24.196152, 59.160522
1649447297.649254, 0.678307, -8.122628, 2.646640, 0.260205, -0.188660, -1.220831, 95.712097, -24.039673, 59.408630
1649447297.682608, 2.014870, -10.400562, 2.636615, 0.251974, -0.723397, -1.274809, 97.301529, -23.242874, 59.748001
1649447297.715948, -1.355567, -11.295694, 1.419762, 0.199902, -0.726592, -1.611503, 99.570053, -22.604614, 59.870773
1649447297.749251, -1.424849, -12.398074, 1.211167, 0.168041, -0.482039, -2.028981, 103.052170, -21.415115, 59.391586
1649447297.782635, 0.312892, -13.002610, 2.757671, -0.013353, -0.778291, -2.441383, 105.843155, -20.395569, 59.503159
1649447297.815934, -4.490624, -13.131149, 3.986495, 0.015941, -1.396944, -2.901326, 109.697662, -18.654816, 58.667831
1649447297.849237, -3.349937, -16.859370, 3.832369, -0.024933, -2.210412, -3.277123, 116.383423, -15.920898, 57.058426
1649447297.882318, -6.002114, -17.399262, 6.693440, -0.551916, -3.141396, -3.219739, 121.685410, -13.161835, 54.283417
1649447297.915299, -3.056647, -11.221324, 2.492364, -0.184506, -1.596152, -2.430624, 125.823486, -10.615753, 51.579117
1649447297.948295, 3.746477, -9.073575, 3.480870, 0.631657, -0.078224, -0.866382, 127.536469, -9.048218, 51.133163
1649447297.982599, 2.104952, -7.876774, 1.072303, -0.321497, 0.090830, 0.818959, 127.644867, -9.064819, 53.099014
1649447298.015911, 1.728464, -3.262698, 0.109086, 0.315497, 1.772181, 2.433206, 125.740234, -10.926620, 54.831223
1649447298.049244, 7.064541, -6.066159, 1.323694, 0.065755, 1.859770, 3.475949, 121.823578, -13.803467, 58.155869
1649447298.082581, 2.564789, -5.109226, 0.536002, -0.242977, 1.366633, 4.777172, 115.758789, -18.198349, 60.308350
1649447298.115191, 4.300585, -6.695235, 0.448763, -0.268723, 1.235837, 5.242815, 110.422775, -20.882355, 62.040695
1649447298.149243, 3.226037, -7.917326, 0.375890, -0.360751, 1.365324, 5.576504, 104.962952, -23.450516, 63.439438
1649447298.182565, 4.104410, -9.524134, 1.222090, -0.419889, 1.260565, 5.694948, 97.319580, -27.080231, 63.982819
1649447298.215934, 4.600758, -11.099369, 2.206107, -0.593143, 0.773065, 5.478992, 91.160355, -29.762543, 64.116852
1649447298.249236, 4.166061, -13.163321, 3.055750, -0.558151, 0.163140, 4.871854, 84.978989, -32.790771, 63.767029
1649447298.282591, 2.418742, -13.754838, 1.589002, 0.074917, 0.153515, 3.583403, 78.469452, -34.255936, 63.643845
1649447298.315257, 2.990807, -12.564022, 3.334225, 0.026370, -0.043712, 0.504306, 72.641571, -35.089996, 63.802429
1649447298.349239, 2.938583, -11.386075, 2.943671, 0.109785, 0.540327, -1.974454, 71.909897, -35.891785, 63.801559
1649447298.382568, 3.640982, -14.031219, 6.742670, 0.655635, 0.261198, -3.339514, 73.818008, -37.314026, 64.933868
1649447298.415909, -4.078223, -16.057162, -4.781071, 0.611950, 3.667406, -4.679199, 77.414795, -38.558182, 65.327362
1649447298.449236, 17.149367, -3.577536, 1.863437, 1.411219, 0.847102, -2.639768, 78.594574, -37.950104, 67.132965
1649447298.482575, 4.086154, -13.246819, 3.828777, 0.760402, -0.110394, -2.536234, 81.483231, -37.476044, 69.016190
1649447298.515897, 3.930232, -11.909657, 4.024503, 0.462687, 0.306990, -1.648035, 84.385132, -36.615250, 70.425705
1649447298.549239, 5.474641, -10.616788, 3.899257, 0.285541, -0.249162, -1.074739, 85.453217, -36.276169, 71.708145
1649447298.582598, 2.424129, -10.463709, 1.898452, 0.250671, -0.430989, -0.798444, 87.097260, -35.809280, 71.769272
1649447298.615891, 1.772906, -10.722282, 3.321506, 0.099126, -0.494010, -0.690978, 89.158203, -35.619293, 72.104462
1649447298.649235, -2.223764, -10.826879, 2.432958, 0.149605, -0.570118, -0.780470, 90.703033, -35.371506, 72.548035
1649447298.682637, -0.772579, -9.094225, 2.097919, 0.207914, -0.445291, -0.985067, 91.967712, -34.879272, 73.102112
1649447298.715904, -0.002993, -8.144027, 2.781763, 0.235232, -0.370550, -1.113916, 93.710541, -34.279877, 73.216263
1649447298.749225, 1.932121, -9.392752, 3.156605, 0.247961, -0.749826, -1.135743, 96.387390, -33.705612, 74.383499
1649447298.782559, 0.587926, -11.203068, 2.415600, 0.160288, -0.929493, -1.261590, 98.632874, -33.267776, 74.456665
1649447298.815902, -0.989553, -11.895890, 1.621323, 0.095363, -0.927076, -1.604434, 101.360779, -32.300171, 74.634857
1649447298.849219, -4.429423, -12.564920, 2.597110, -0.041323, -0.667066, -2.472744, 105.596771, -31.219528, 74.705460
1649447298.882606, -4.222773, -13.591733, 3.996222, -0.138744, -0.917830, -3.189214, 109.372513, -29.890381, 74.623520
1649447298.915899, -5.462371, -17.281497, 3.422362, -0.065353, -1.650122, -3.512317, 114.115250, -28.071030, 74.468857
1649447298.949218, -6.640318, -18.226459, 5.186140, -0.681704, -3.202441, -3.425038, 121.967117, -25.620132, 71.716934
1649447298.982561, -2.734777, -10.506056, 1.108665, -0.106404, -1.808823, -2.566915, 125.862259, -24.319138, 69.336258
1649447299.015897, 5.751022, -10.086622, 3.323302, 0.924312, -0.479670, -1.020176, 126.187164, -23.429947, 69.735657
1649447299.049232, 0.290896, -6.226421, -0.136469, 0.050864, -0.617131, 1.057925, 124.062210, -24.139511, 69.980865
1649447299.082609, 2.469769, -3.470246, -0.333692, 0.723773, 1.531578, 2.677272, 116.514557, -25.910538, 71.765732
1649447299.115224, 6.163872, -5.261857, 1.004517, 0.298511, 1.471542, 3.635116, 107.706161, -27.024017, 73.643036
1649447299.149252, 3.168876, -4.507982, 0.331896, 0.091779, 1.576502, 4.924824, 98.018402, -27.417725, 74.850021
1649447299.182551, 3.454983, -6.171055, 0.854131, -0.120004, 1.284703, 5.430193, 84.405319, -24.248322, 75.274338
1649447299.215893, 4.112790, -7.956830, 1.332074, -0.256872, 1.257896, 5.725224, 75.429184, -19.424622, 75.540405
1649447299.249255, 3.930980, -8.782680, 0.771232, -0.200800, 1.401783, 5.764175, 68.605179, -12.357559, 75.902298
1649447299.282548, 3.944298, -12.118701, 2.766051, -0.362031, 0.703942, 5.416715, 63.948853, -2.136490, 76.733536
1649447299.315881, 5.035605, -13.464691, 3.754258, -0.295603, 0.260732, 4.612462, 64.458496, 4.713623, 78.021896
1649447299.349283, 1.130362, -13.201778, 1.122132, 0.302793, 0.726596, 3.247478, 66.226227, 9.915222, 79.334686
1649447299.382555, 4.584447, -12.724434, 2.718017, 0.215961, 0.449433, 0.421398, 68.261292, 12.564804, 80.230804
1649447299.415880, 3.703381, -11.329961, 2.372205, 0.302086, 0.794943, -1.770524, 69.710709, 12.797150, 80.594070
1649447299.449217, 4.717176, -14.577097, 4.578462, 0.540821, 0.642403, -3.383628, 70.122849, 11.978989, 80.581985
1649447299.482482, -9.634866, -18.496854, -3.161244, 0.652609, 2.967200, -4.227637, 71.292740, 9.519958, 80.129395
1649447299.515475, 16.687735, -4.286519, 1.212065, 1.070327, 0.781685, -2.516519, 68.894348, 7.186890, 78.496506
1649447299.549211, 3.140145, -12.729970, 4.280384, 0.582050, -0.348931, -2.319043, 69.579788, 6.232407, 78.843353
1649447299.582527, 3.641730, -10.611551, 3.621978, 0.463310, 0.018776, -1.680508, 70.861618, 5.844208, 78.869232
1649447299.615871, 2.888155, -9.916634, 2.871246, 0.461994, 0.249731, -1.246386, 71.121628, 5.211533, 78.765686
1649447299.649208, 4.292055, -10.589255, 3.121141, 0.236382, -0.610602, -0.940261, 72.016312, 4.793732, 79.064514
1649447299.682540, -0.031125, -10.326491, 2.679710, 0.170682, -0.407341, -0.743697, 72.863647, 4.579895, 78.963486
1649447299.715856, 0.280421, -9.733328, 2.595315, 0.119899, -0.506053, -0.671592, 74.137909, 3.994247, 79.327194
1649447299.749201, -0.845602, -10.080786, 1.904288, 0.178450, -0.475171, -0.809330, 75.331482, 3.792419, 79.102234
1649447299.782538, -1.110012, -8.930971, 2.022801, 0.210130, -0.434357, -1.065715, 76.221863, 3.304672, 79.073608
1649447299.815823, -0.218022, -8.688857, 3.332429, 0.277225, -0.461458, -1.262831, 77.018341, 2.964798, 78.950409
1649447299.849217, 1.076643, -10.691906, 2.814234, 0.253881, -0.835537, -1.384090, 79.168198, 2.848526, 78.677856
1649447299.882573, -0.167744, -12.005575, 1.881094, 0.153330, -0.886672, -1.669853, 81.231094, 2.355743, 78.336166
1649447299.915868, -2.824859, -13.025355, 1.937358, 0.083567, -0.656910, -2.343398, 82.991531, 1.593948, 78.057434
1649447299.949197, -3.190872, -13.325827, 3.193266, 0.037616, -0.918740, -2.868325, 86.447815, 0.666275, 77.138718
1649447299.982529, -3.257162, -14.579790, 3.122338, 0.125132, -1.657057, -3.344421, 90.015778, 0.209259, 75.888992
1649447300.015850, -6.121824, -20.374506, 3.809923, -0.168725, -3.045221, -3.526847, 95.243683, 0.312485, 74.347717
1649447300.049182, -4.272453, -15.319898, 5.471948, -0.566754, -2.949806, -2.972644, 102.896133, 1.010651, 70.886230
1649447300.082530, -0.308253, -8.434772, 3.427898, -0.156533, -0.559011, -1.727768, 105.138504, 2.930099, 68.264267
1649447300.115871, 8.137891, -10.782736, 3.747375, 0.289246, 0.781655, -0.505777, 105.792862, 4.767349, 66.835861
1649447300.149198, -0.622642, -3.135207, 0.222062, -0.119276, 1.282253, 1.664074, 107.019791, 5.172852, 65.298752
1649447300.182549, 5.206341, -5.099201, 0.893785, 0.026475, 2.663980, 2.891728, 106.275238, 4.859131, 64.522598
1649447300.215861, 4.298191, -4.504391, 1.772607, -0.390168, 2.063889, 3.863735, 105.467010, 2.407593, 65.405304
1649447300.249190, 4.460547, -5.597943, 1.811064, -0.581654, 1.351633, 4.772961, 104.389236, -1.519791, 65.067688
1649447300.282526, 3.459322, -6.918944, 1.574038, -0.573724, 1.335436, 5.137589, 100.610550, -7.266083, 64.307053
1649447300.315860, 3.657742, -8.206874, 1.479467, -0.482923, 1.654635, 5.219885, 95.281311, -9.896088, 63.582840
1649447300.349191, 4.419247, -9.961974, 3.483563, -0.551777, 1.245191, 5.137321, 89.634842, -10.111557, 61.845551
1649447300.382520, 5.553500, -10.730961, 4.097975, -0.677257, 0.053897, 4.903704, 85.598190, -8.161850, 59.947128
1649447300.415909, 3.426851, -12.116456, 3.352032, -0.170853, -0.243102, 4.256698, 85.487503, -6.091476, 59.380783
1649447300.449184, 2.982277, -13.299341, 3.119196, 0.346406, -0.543120, 2.190795, 87.464172, -4.936951, 59.129013
1649447300.482530, 3.438672, -12.180651, 2.068291, 0.318900, -0.088082, -0.172563, 90.605545, -5.497864, 59.859695
1649447300.515850, 2.759018, -14.302661, 1.949778, 0.253606, 1.308098, -2.920437, 93.960434, -7.598175, 62.214645
1649447300.549170, -13.863625, -26.499024, -8.201936, -0.194896, 1.694549, -4.621152, 95.824921, -8.956680, 64.347900
1649447300.582515, 18.059613, 2.477400, 1.284190, 1.441297, 0.974304, -2.663340, 95.949677, -9.094528, 66.786469
1649447300.615851, 5.166089, -16.066290, 5.878214, 0.786562, 0.092616, -2.816490, 97.986389, -8.486557, 69.694763
1649447300.649205, 4.069095, -9.093328, 3.831172, 0.702107, 0.258807, -2.017828, 99.192734, -7.676697, 70.632202
1649447300.682371, 5.140351, -10.759243, 3.884592, 0.365296, -0.297164, -1.268966, 100.035156, -7.196213, 71.727631
1649447300.715839, 2.083255, -10.139294, 2.833089, 0.258131, -0.433560, -0.930210, 101.382492, -6.515930, 72.233810
1649447300.749177, 2.691980, -11.133038, 3.228581, 0.159947, -0.626135, -0.756803, 102.190109, -6.293518, 72.034363
1649447300.782515, -1.822287, -10.894366, 2.388515, 0.214453, -0.753548, -0.812771, 103.538910, -5.949402, 71.854370
1649447300.815830, 0.844405, -9.027786, 2.779818, 0.208822, -0.782503, -0.875983, 105.452606, -6.019669, 71.824905
1649447300.849204, 2.311751, -8.327632, 3.066823, 0.176055, -0.935629, -0.831622, 106.627243, -5.621643, 71.931931
1649447300.882509, 1.903839, -9.594464, 2.856283, 0.094850, -1.059668, -0.789517, 108.119339, -5.344452, 71.515823
1649447300.915851, 0.089034, -10.686070, 1.964293, 0.025814, -1.037695, -1.067564, 109.446594, -4.925934, 71.234024
1649447300.949180, -3.798551, -10.844836, 1.571195, 0.012575, -0.684455, -1.721370, 111.901871, -4.581161, 71.120239
1649447300.982491, -3.111864, -12.293777, 2.745401, 0.021081, -0.905447, -2.640952, 113.815979, -3.487579, 70.799210
1649447301.015937, -4.300585, -13.326426, 3.153912, 0.010827, -1.380372, -3.316818, 116.419388, -2.183289, 70.641296
1649447301.048572, -4.668095, -15.852458, 4.029142, 0.070152, -2.425372, -3.642671, 122.289413, 0.501022, 69.399139
1649447301.082507, -8.163928, -22.156391, 6.636278, -0.467559, -2.783793, -3.651556, 126.512817, 2.375290, 66.842682
1649447301.115664, -1.343446, -9.450662, 1.705420, -0.189266, -0.998463, -2.263948, 129.750381, 3.712357, 64.008224
1649447301.148640, 8.481908, -11.952154, 5.291186, 0.420451, 0.641781, -0.682050, 130.683212, 4.110519, 62.842209
1649447301.182235, 0.471957, -6.306776, -0.179715, -0.359433, -0.300932, 1.036641, 131.764496, 1.541183, 60.332840
1649447301.215833, 4.996549, -6.013486, -0.825102, 0.475825, 2.356862, 3.166050, 130.687119, -2.737076, 60.935364
1649447301.249237, 4.880580, -4.439149, 0.780809, 0.210130, 2.059932, 4.308749, 128.445831, -8.942032, 62.200897
1649447301.282504, 4.187010, -6.232705, 1.276708, -0.213784, 1.500251, 5.066891, 123.788788, -20.049469, 62.957336
1649447301.315565, 3.701735, -7.691074, 1.135749, -0.491111, 0.928201, 5.714289, 117.787094, -29.376007, 62.529724
1649447301.349164, 3.976470, -8.030452, -0.382923, -0.135467, 1.826203, 5.848603, 108.419403, -37.776154, 63.150284
1649447301.382546, 4.769549, -10.013150, 2.171840, -0.344646, 1.369771, 5.759868, 91.824829, -45.409561, 62.859406
1649447301.415830, 4.733935, -11.471368, 3.175759, -0.538751, -0.343334, 5.264422, 78.779770, -47.099747, 62.081421
1649447301.449162, 1.983446, -12.420520, 1.748964, 0.132826, -0.167814, 4.499844, 66.790268, -45.144363, 62.259613
1649447301.482493, 3.177106, -13.027899, 3.017742, 0.313386, -0.517025, 2.963704, 55.961853, -39.265945, 64.263657
1649447301.515880, 0.073472, -11.013777, 2.026991, 0.373419, 0.390667, -0.286679, 52.335236, -35.553772, 65.297409
1649447301.549170, 3.699640, -9.992350, 0.410905, 0.408841, 1.562931, -2.550764, 51.190140, -34.272003, 65.012344
1649447301.582487, -0.404022, -13.320739, 8.061876, 1.119059, 1.188736, -3.041479, 52.003433, -34.350510, 64.320251
1649447301.615826, -18.655021, -30.583682, -3.825934, -0.209563, 1.477183, -4.363137, 55.965942, -34.974655, 63.727249
1649447301.649188, 15.364340, -4.077924, 1.520617, 1.472915, 1.088349, -2.695010, 57.521805, -34.842484, 62.424240
1649447301.682493, 4.140622, -10.971728, 4.293252, 0.625367, -0.287169, -2.229053, 60.060867, -35.061737, 63.323624
1649447301.715831, 5.718551, -10.925939, 2.918681, 0.493117, -0.022780, -1.754493, 63.596420, -35.068176, 64.872330
1649447301.749152, 4.377199, -10.707169, 3.565116, 0.337387, -0.412582, -1.104761, 64.773880, -34.706284, 65.061661
1649447301.781814, 0.359729, -9.936236, 1.854758, 0.324565, -0.515430, -0.907794, 66.608444, -34.546463, 65.812958
1649447301.815826, 1.666813, -10.059238, 3.779996, 0.198669, -0.622411, -0.830737, 69.062393, -34.411774, 66.612381
1649447301.849213, -1.829320, -10.022577, 2.655319, 0.230220, -0.513331, -0.947414, 70.869431, -34.105911, 67.020172
1649447301.882495, -0.496348, -9.492261, 2.571223, 0.258758, -0.618534, -1.107204, 72.550308, -33.870316, 67.315094
1649447301.915810, -0.670825, -9.019257, 2.966117, 0.276498, -0.410776, -1.254705, 75.335114, -33.252777, 67.921829
1649447301.949136, 1.361253, -10.093056, 2.371157, 0.271718, -0.531051, -1.420405, 77.198502, -32.763260, 68.043564
1649447301.982484, 0.262913, -10.949582, 2.758719, 0.271946, -0.883211, -1.597458, 79.783218, -32.034576, 68.059280
1649447302.015825, -0.285658, -11.359290, 2.813187, 0.246237, -1.114565, -1.846364, 82.922318, -31.431046, 68.369080
1649447302.049220, -2.092832, -12.643330, 2.326565, 0.110699, -0.889954, -2.274818, 87.798889, -29.954788, 67.673096
1649447302.082486, -3.530849, -12.866140, 3.241899, 0.145366, -1.203554, -3.061981, 91.624252, -28.576416, 66.803680
1649447302.115831, -4.347870, -15.074941, 1.771709, 0.266968, -2.065793, -3.388125, 96.385818, -25.839264, 65.920197
1649447302.149145, -6.375909, -21.671116, 3.950732, -0.195746, -3.042460, -3.465391, 104.344284, -21.401154, 62.237930
1649447302.182528, -4.354754, -13.220782, 2.538153, -0.206647, -1.903449, -2.557652, 108.587357, -18.276016, 58.028748
1649447302.215812, 6.775890, -9.580847, 3.629610, 0.736054, -0.720330, -0.744179, 110.841721, -15.275620, 55.056213
1649447302.249140, 3.999664, -9.632771, -0.416142, -0.418085, -1.076695, 0.587138, 112.047394, -13.584213, 50.898880
1649447302.282474, 2.615216, -4.015375, -0.091728, 0.503560, 1.631789, 2.953952, 110.214798, -14.434982, 49.852020
1649447302.315820, 5.657499, -5.281160, 0.894085, 0.157208, 1.927154, 3.880512, 107.352631, -15.934204, 48.929016
1649447302.349192, 3.137152, -4.591331, 1.344045, -0.156409, 1.719803, 4.848767, 102.565445, -18.625351, 47.743439
1649447302.382472, 3.827730, -5.803395, 1.738340, -0.451627, 1.000008, 5.615564, 98.274796, -20.778381, 46.568985
1649447302.415805, 4.686500, -7.819612, 1.831265, -0.556507, 0.706345, 6.057906, 93.364502, -22.737717, 45.267487
1649447302.449202, 4.020164, -8.155848, 1.455076, -0.336998, 0.925840, 6.099264, 87.532944, -24.404022, 44.049683
1649447302.482489, 4.227861, -11.203218, 3.248333, -0.276732, 0.590207, 5.841377, 79.895401, -24.707840, 43.047775
1649447302.515827, 2.608483, -12.981212, 3.367445, 0.049719, -0.083250, 4.908708, 74.008560, -23.553970, 42.596191
1649447302.549207, 2.407968, -13.662512, 1.542464, 0.600732, 0.037393, 3.282551, 68.974518, -21.620270, 42.539551
1649447302.582524, 4.338144, -12.433987, 3.126079, 0.341093, -0.227363, 0.559937, 67.200394, -20.781555, 43.350220
1649447302.615946, 1.599476, -12.852075, 2.246809, 0.341630, 1.168152, -2.929951, 68.394302, -21.590714, 43.038406
1649447302.649120, -9.026888, -22.014086, 0.947505, -0.186194, -0.580390, -3.290375, 70.669983, -22.806137, 42.889542
1649447302.682451, 13.472771, -4.950162, -3.808726, 0.913106, 3.071231, -3.749026, 74.826736, -24.679581, 41.848404
1649447302.715807, 5.448006, -16.040702, 8.737040, 0.479097, -0.446747, -2.368325, 77.285309, -24.607086, 42.878723
1649447302.748526, 4.721366, -7.604882, 4.179079, 0.477897, -0.797191, -1.642249, 79.344482, -24.772415, 43.341400
1649447302.781853, 2.935890, -11.315147, 0.702549, 0.264073, -0.113837, -1.363203, 81.062851, -25.068207, 43.841721
1649447302.814820, 0.269946, -10.346842, 1.651700, 0.332082, -0.062279, -1.013991, 82.842316, -25.018875, 44.402039
1649447302.849131, 0.328155, -9.375843, 2.966117, 0.192374, -0.505322, -0.881058, 83.932404, -24.840118, 44.537582
1649447302.882465, -1.658733, -9.383624, 2.606238, 0.189037, -0.273766, -0.892960, 84.921036, -24.978500, 44.384476
1649447302.915782, -0.323516, -9.435698, 2.631228, 0.257447, -0.487607, -0.979703, 86.954056, -24.986664, 45.011780
1649447302.948726, -0.951546, -9.242816, 2.224213, 0.289393, -0.236884, -1.155292, 88.092361, -24.421310, 45.433929
1649447302.982457, 1.089062, -10.247482, 3.012654, 0.302437, -0.616158, -1.202498, 89.265503, -24.252823, 45.786880
1649447303.015796, -0.319776, -11.787852, 2.511368, 0.221736, -0.796346, -1.420119, 92.078476, -23.864212, 46.666840
1649447303.049130, -3.086874, -11.779323, 2.209848, 0.132661, -0.513863, -2.012493, 94.218628, -23.108597, 46.544647
1649447303.082468, -0.603339, -13.915250, 2.581548, 0.037545, -0.743389, -2.425315, 96.797043, -22.260269, 46.051865
1649447303.115800, -4.213645, -13.530681, 2.587833, -0.123275, -0.782744, -2.946138, 99.757629, -21.283737, 45.697021
1649447303.149132, -4.676474, -15.101577, 3.246238, 0.019451, -1.704078, -3.641263, 105.612045, -18.458542, 44.935440
1649447303.182452, -8.080880, -20.425683, 2.860622, -0.121625, -2.575121, -3.815707, 110.201767, -15.871689, 43.706299
1649447303.215819, -3.533692, -17.689260, 6.794295, -0.776636, -3.307405, -3.233871, 114.820724, -13.315323, 40.833618
1649447303.249112, 0.240168, -7.316531, 1.745672, 0.113990, -0.807244, -1.414577, 119.550720, -10.366547, 38.503922
1649447303.282465, 10.521020, -10.675895, 3.462913, 0.312669, 0.008886, -0.146194, 120.834961, -9.800217, 38.996826
1649447303.315796, -0.221763, -3.347393, -0.642095, 0.019173, 0.103436, 1.617433, 121.506149, -11.634964, 38.471085
1649447303.348342, 3.233369, -3.415628, 0.032172, 0.620714, 2.179819, 3.160833, 118.982361, -17.232941, 42.016983
1649447303.382498, 3.604022, -3.842843, 0.615609, 0.033757, 1.936241, 4.587101, 114.150024, -21.439697, 45.202347
1649447303.415827, 3.134758, -5.141398, 1.055843, -0.087538, 1.894726, 5.263989, 107.339844, -25.620941, 47.632553
1649447303.449100, 4.195689, -6.750302, 2.275689, -0.422623, 1.236847, 5.786119, 95.725601, -30.579941, 49.065857
1649447303.482449, 4.222474, -8.316708, 1.549647, -0.488279, 0.940161, 6.070302, 86.529846, -30.633911, 50.570160
1649447303.515783, 3.285443, -11.089044, 1.808071, -0.304511, 1.507247, 5.879060, 77.139328, -28.348709, 51.592636
1649447303.549138, 6.003610, -14.080450, 3.328090, -0.397842, 0.449753, 5.353543, 69.058609, -24.984421, 51.926834
1649447303.582439, 3.187131, -14.047080, 2.341828, 0.289891, 0.020626, 3.768569, 62.743530, -18.687515, 53.368866
1649447303.615831, 4.893898, -13.010391, 3.510049, 0.228653, -0.394747, 1.385617, 61.294327, -15.639877, 55.959793
1649447303.649110, 3.406799, -10.576386, 1.732355, 0.231841, 0.204915, -1.352022, 61.380936, -15.525360, 57.296265
1649447303.682443, 2.114978, -12.026374, 4.647894, 0.670171, 0.565281, -2.647119, 63.358810, -16.882507, 57.392258
1649447303.715786, -28.663233, -24.074446, -2.408417, -0.049546, 1.013122, -4.872233, 66.461029, -18.981537, 59.721207
1649447303.749116, 18.017864, -5.257517, -3.042731, 0.747903, 1.589029, -2.413549, 67.222656, -21.040253, 59.730270
1649447303.782426, 5.819706, -12.795960, 6.993613, 0.611794, -0.057689, -1.943949, 68.876801, -21.888245, 60.065063
1649447303.815785, 4.824316, -9.722105, 5.325303, 0.199675, -1.082394, -1.771188, 72.016083, -22.548416, 61.700211
1649447303.849121, 1.236306, -9.927108, 0.556802, 0.248195, -0.016147, -1.286788, 73.545593, -23.339783, 62.765884
1649447303.882426, 1.385345, -9.989956, 1.943643, 0.230809, -0.249657, -0.876582, 74.349838, -23.774155, 62.683289
1649447303.914766, 0.754622, -9.635913, 3.069815, 0.111119, -0.802516, -0.807850, 76.258087, -23.588135, 63.318939
1649447303.949103, -2.512266, -9.258677, 2.291550, 0.172442, -0.347408, -0.825032, 77.801590, -23.980042, 64.616440
1649447303.982432, 1.429787, -9.055320, 3.282151, 0.141007, -0.413279, -0.941936, 79.062744, -24.173859, 64.739883
1649447304.015757, -1.081581, -9.701754, 2.305766, 0.195592, -0.345212, -1.035275, 80.750549, -23.765915, 64.529129
1649447304.049099, 0.695216, -9.833884, 2.794033, 0.247695, -0.672649, -1.230840, 82.695343, -23.736923, 66.044266
1649447304.082448, -0.469712, -10.519374, 2.822764, 0.237228, -0.733623, -1.418362, 84.728165, -23.967606, 66.516556
1649447304.115824, -1.892018, -12.564621, 2.004695, 0.135545, -0.594661, -2.021184, 87.856857, -23.744446, 66.131454
1649447304.149125, -2.498948, -13.897742, 2.329558, 0.012926, -0.563429, -2.643035, 91.346771, -23.392578, 67.521973
1649447304.182432, -3.290980, -14.407408, 2.747346, -0.069274, -0.765251, -3.202117, 95.384857, -23.160431, 67.619904
1649447304.215863, -3.610606, -15.402199, 3.211522, 0.195302, -1.742438, -3.516775, 101.660995, -21.715515, 66.933426
1649447304.249159, -4.121020, -17.801488, 1.387440, -0.014903, -2.944888, -3.690778, 108.541550, -19.394775, 66.719086
1649447304.282441, -5.848137, -17.247829, 7.017106, -0.695403, -2.944493, -3.386074, 115.452759, -17.121063, 64.895462
1649447304.315752, -0.530316, -8.547450, 2.061707, -0.360636, -0.371353, -1.662088, 119.803040, -15.296814, 62.852463
1649447304.349023, 11.020959, -9.027786, 5.799056, 0.391603, 1.200798, 0.082490, 121.223969, -13.262161, 61.831360
1649447304.381559, 0.847398, -4.389918, -0.231190, -0.599996, -0.120638, 1.549578, 122.191193, -14.647797, 60.247360
1649447304.415468, 2.072630, -2.757372, 0.047285, 0.286667, 2.107280, 3.244186, 119.527191, -17.651718, 60.566162
1649447304.448666, 4.824466, -4.562600, 1.176002, -0.286212, 2.075871, 4.600946, 114.019958, -23.602219, 59.575745
1649447304.482073, 3.036746, -4.388572, 1.452532, -0.421917, 1.914663, 5.303916, 108.187485, -29.211899, 59.727097
1649447304.515363, 3.712808, -6.199037, 2.061707, -0.510192, 1.758357, 5.762768, 100.096802, -34.767120, 58.990463
1649447304.548771, 6.015881, -8.264186, 2.480842, -0.784534, 0.491156, 6.145873, 86.789719, -39.286102, 55.096970
1649447304.582127, 3.409194, -10.069713, 1.553089, -0.336317, 0.969437, 6.059433, 75.999863, -39.222336, 53.940079
1649447304.615510, 5.458032, -13.366678, 2.681207, -0.188442, 0.184277, 5.489771, 66.010483, -35.939163, 53.465576
1649447304.648883, 2.970007, -14.463821, 3.008314, 0.363182, -0.158322, 3.763233, 59.239044, -30.537155, 52.876450
1649447304.682253, 4.008193, -13.354857, 3.875913, 0.334323, -0.746697, 1.561314, 56.659485, -24.193146, 53.982361
1649447304.715627, 2.574964, -11.507281, 1.544260, 0.307988, -0.170890, -1.207291, 58.503967, -22.564545, 55.492477
1649447304.748980, 4.685153, -12.275820, 0.728436, 0.270796, 0.932171, -3.138678, 62.281219, -23.316940, 55.468582
1649447304.782367, -16.063597, -15.375563, 0.218621, -0.024391, -0.980710, -2.085499, 67.894547, -23.807281, 54.599533
1649447304.815743, 8.651448, -17.488296, -4.188805, 0.475717, 1.556190, -3.181303, 72.003906, -25.573502, 54.864151
1649447304.849122, 5.607520, -5.545570, 3.419219, 0.886822, 0.419587, -2.251336, 75.274826, -26.356934, 54.976715
1649447304.882400, 4.217536, -10.430340, 6.212055, -0.002981, -0.934052, -1.798139, 79.694977, -26.694031, 54.526489
1649447304.915744, 1.718438, -9.630975, 0.445471, 0.100004, -0.077790, -1.414407, 82.156326, -26.949036, 55.281357
1649447304.949135, 1.707215, -9.623494, 1.401506, 0.257191, 0.162852, -1.050287, 83.441483, -27.239639, 56.044067
1649447304.982408, 1.012747, -9.766846, 3.803938, 0.003943, -0.652755, -0.913680, 85.069412, -27.130768, 55.677307
1649447305.014895, -0.231040, -9.387066, 1.451634, 0.118226, -0.437006, -0.892514, 87.607101, -27.063766, 55.441040
1649447305.049088, -0.387112, -9.295189, 2.804658, 0.078216, -0.398045, -0.932493, 89.137039, -27.280563, 56.388443
1649447305.082410, 0.280720, -8.906879, 2.635717, 0.100725, -0.214598, -1.034864, 90.546234, -27.186310, 55.938828
1649447305.115743, -0.272191, -9.223662, 1.829769, 0.149881, -0.166359, -1.154824, 92.947739, -26.875931, 55.503204
1649447305.149134, 0.659303, -9.875334, 2.940828, 0.213828, -0.389014, -1.293936, 94.904831, -26.522736, 56.590683
1649447305.182478, -1.386542, -11.917737, 1.634492, 0.123999, -0.565152, -1.745004, 97.524368, -26.315842, 56.587708
1649447305.215744, -2.176778, -13.214048, 2.043601, 0.030196, -0.590980, -2.291312, 101.519989, -25.128632, 55.273010
1649447305.249149, -1.452831, -14.647127, 2.231396, -0.137224, -0.649342, -2.803440, 105.364471, -24.568237, 55.131516
1649447305.282398, -4.108300, -14.442273, 3.394080, -0.114288, -1.270763, -3.369594, 109.604034, -23.166168, 54.378159
1649447305.315722, -3.772214, -17.888128, 2.780566, -0.082884, -1.830519, -3.830747, 115.888138, -19.730835, 50.522293
1649447305.348289, -6.597522, -18.748095, 3.379865, -0.524852, -2.808906, -3.699941, 120.556015, -16.127029, 47.495056
1649447305.382449, -4.302979, -14.050073, 3.890428, -0.611725, -1.986278, -3.022349, 123.884399, -12.217041, 44.210861
1649447305.415735, 5.762394, -8.140585, 4.203620, 0.611477, 0.057234, -0.827596, 125.218979, -8.687546, 42.211334
1649447305.449069, 6.514024, -7.776217, 2.261174, -0.523821, -0.250725, 0.380488, 126.372208, -6.776154, 40.602127
1649447305.482402, 0.130185, -2.582146, 0.701052, 0.144353, 1.476207, 2.057686, 126.802658, -7.716476, 40.994644
1649447305.515739, 6.483049, -4.835988, 1.094001, -0.158447, 2.183199, 3.699184, 125.838455, -11.018799, 43.074097
1649447305.549081, 3.041983, -3.420267, 1.308282, -0.431805, 1.979424, 4.693398, 122.881500, -17.963089, 43.997299
1649447305.582396, 3.588759, -5.159355, 1.053748, -0.534104, 1.890366, 5.176237, 118.766907, -24.162399, 46.278351
1649447305.615742, 4.860978, -7.537994, 2.493561, -0.725929, 1.336930, 5.814491, 112.833252, -30.577805, 47.062714
1649447305.649049, 5.256619, -8.065766, 2.231695, -0.457849, 1.176857, 6.040629, 101.996780, -37.011810, 46.763382
1649447305.682393, 4.838831, -10.770765, 3.918859, -0.447896, -0.090342, 5.898608, 93.072189, -40.795685, 47.933914
1649447305.715553, 4.110994, -12.792219, 3.166631, 0.339622, -0.793247, 5.060660, 84.332504, -42.457916, 49.529099
1649447305.749077, 2.345569, -13.942633, 3.508553, 0.517611, -1.086123, 3.706130, 76.621750, -42.297775, 51.230072
1649447305.782395, 1.941398, -11.983877, 2.297835, 0.464223, -0.642443, 1.169407, 71.078171, -41.485275, 54.023102
1649447305.814918, 2.762759, -10.772261, 0.122254, 0.333778, 0.560329, -1.757088, 70.516800, -42.446838, 56.012878
1649447305.849065, 0.375590, -14.856021, 6.660819, 0.318555, 0.702739, -2.892056, 72.093597, -43.838013, 56.620590
1649447305.882395, -5.701492, -27.380090, -5.211878, 0.249472, 3.170595, -4.055271, 76.443634, -44.755585, 54.610031
1649447305.915768, 17.706917, -0.222361, 1.611597, 1.103740, 1.191647, -2.739183, 78.315994, -44.237381, 55.903687
1649447305.948769, 4.904073, -12.338818, 5.732168, 0.162218, -0.740222, -2.221107, 81.664597, -44.376190, 57.049423
1649447305.982190, 3.672705, -9.861866, 1.658134, 0.247135, -0.202963, -1.755624, 86.068298, -44.103394, 56.144806
1649447306.015193, 1.546654, -9.362226, 1.564461, 0.332870, 0.452398, -1.246989, 87.266800, -43.958328, 57.305679
1649447306.048628, 2.645593, -10.029311, 3.338265, 0.108959, -0.669106, -0.994920, 88.901733, -43.411148, 57.895004
1649447306.081930, -0.428263, -9.373150, 2.121562, 0.147113, -0.352152, -0.870389, 90.878677, -43.304276, 57.385681
1649447306.115292, 1.075445, -9.213636, 3.304746, 0.079948, -0.410837, -0.902290, 92.947601, -42.725861, 57.761551
1649447306.148662, -0.366762, -9.434801, 2.366369, 0.120420, -0.370493, -1.004022, 94.325470, -42.565613, 58.101669
1649447306.182082, 0.405069, -9.179369, 2.450166, 0.148193, -0.306917, -1.136119, 96.123154, -42.092712, 57.774597
1649447306.215430, 0.792630, -10.401310, 2.729839, 0.178707, -0.584470, -1.258693, 99.086487, -41.288712, 57.315491
1649447306.248842, 0.188693, -11.882872, 2.362478, 0.156825, -0.827177, -1.447224, 101.380035, -40.327728, 57.726471
1649447306.282185, -2.414702, -12.780248, 2.210896, -0.000493, -0.648120, -2.220559, 104.234497, -39.103485, 57.459137
1649447306.315566, -1.901445, -13.757681, 2.556259, -0.082831, -0.882199, -2.756649, 109.144424, -36.639038, 55.267090
1649447306.348927, -4.133589, -13.672089, 3.309535, -0.109903, -1.181459, -3.317261, 113.467438, -33.916962, 54.555984
1649447306.382325, -4.922479, -18.366819, 3.717896, -0.053613, -2.055256, -3.915903, 118.382492, -30.317688, 52.710953
1649447306.415667, -4.804115, -19.110518, 6.876596, -0.723957, -3.567512, -3.570763, 124.315598, -25.129395, 46.419571
1649447306.449053, -4.231452, -10.593744, 2.862418, -0.379175, -1.842142, -2.699894, 126.717560, -21.368103, 43.993942
1649447306.482374, 8.549544, -9.546729, 4.446032, 1.179510, 0.302832, -0.499359, 127.016388, -18.850693, 43.996887
1649447306.515708, 4.276942, -6.779332, 0.310797, -0.259446, -0.841533, 0.874932, 126.153900, -17.668030, 44.173401
1649447306.549041, 0.607978, -2.442684, -0.996586, 0.753084, 1.398472, 2.464364, 123.127731, -18.823135, 44.744370
1649447306.582432, 5.156512, -4.742913, 0.296133, 0.415488, 1.559221, 4.046190, 119.392883, -20.918060, 47.037979
1649447306.615693, 2.970456, -4.663007, 0.044891, 0.237461, 1.526976, 4.953173, 114.924896, -23.871262, 49.221481
1649447306.649062, 4.037971, -5.910835, 0.044742, 0.093390, 1.276527, 5.441200, 107.494522, -28.253662, 49.791992
1649447306.681999, 3.704129, -7.819014, 1.221791, -0.083695, 0.876133, 5.886268, 101.011490, -30.572098, 51.241150
1649447306.715775, 2.653973, -9.590723, 1.009455, 0.081761, 1.325012, 6.091649, 93.815567, -32.059692, 52.041245
1649447306.749024, 5.614104, -12.369344, 3.731513, -0.389002, 0.090956, 5.806083, 84.005249, -33.183884, 51.466492
1649447306.782379, 3.205686, -12.191724, 2.194136, -0.026776, -0.222400, 5.118600, 78.237350, -32.682144, 52.204376
1649447306.815717, 2.434903, -13.621810, 0.066140, 0.417371, 0.572208, 2.855033, 73.909439, -31.907669, 53.406891
1649447306.849030, 3.688717, -11.693879, 1.558326, 0.232002, 1.053149, 0.108877, 71.973068, -31.689499, 53.363129
1649447306.882365, 4.414309, -11.801918, 3.591452, 0.177714, 1.494938, -2.196173, 73.319183, -33.818069, 52.546127
1649447306.915710, -7.212233, -19.789573, 2.865410, -0.407795, -2.540130, -3.334068, 77.861832, -35.604889, 53.679398
1649447306.949030, 5.360618, -9.675717, -5.981165, 0.566786, 2.932224, -3.418680, 82.223251, -36.836029, 53.280807
1649447306.982378, 11.472266, -5.240907, 3.552995, 1.325543, 1.041996, -2.549907, 85.810547, -37.058304, 53.717682
1649447307.015692, 3.648763, -9.105747, 4.183119, 0.248429, -0.847785, -1.992787, 88.890305, -36.729141, 54.816650
1649447307.049030, 4.257190, -11.279383, 1.559224, 0.137742, -0.678554, -1.580278, 92.238190, -36.783646, 55.602539
1649447307.082355, 0.320524, -8.754847, 1.528847, 0.390357, 0.333646, -1.090085, 94.413910, -36.508072, 55.541443
1649447307.115680, 3.053505, -9.761609, 3.306692, 0.125061, -0.699134, -0.835620, 96.028336, -36.099426, 55.945282
1649447307.149035, -1.154454, -9.163956, 2.047342, 0.158976, -0.299359, -0.853683, 97.717636, -36.122421, 56.391724
1649447307.182360, 0.140510, -9.364621, 2.942923, 0.150541, -0.230602, -0.812986, 99.466812, -35.681641, 55.745178
1649447307.215688, -0.173280, -9.113379, 2.521992, 0.182292, -0.288431, -0.988520, 100.951218, -35.187759, 56.542892
1649447307.249032, 0.711676, -9.809942, 2.200421, 0.203327, -0.249272, -1.191831, 102.784012, -34.487991, 56.940582
1649447307.282375, 0.334889, -10.145430, 2.555960, 0.266847, -0.495791, -1.281803, 104.846954, -34.076691, 56.850555
1649447307.315745, 1.430236, -12.029966, 2.459593, 0.183477, -0.766182, -1.415217, 108.016602, -33.255249, 56.661240
1649447307.349019, -0.850839, -12.624625, 2.482488, 0.028443, -0.841219, -1.896188, 110.923630, -32.255142, 56.510696
1649447307.382377, -2.041506, -14.201955, 2.206706, -0.117145, -0.915951, -2.432331, 114.392776, -30.789337, 55.847046
1649447307.415680, -4.181324, -14.300267, 3.298911, -0.220898, -1.082905, -3.050038, 120.121689, -28.377045, 53.568375
1649447307.449014, -4.955399, -18.852542, 4.028544, -0.191390, -1.796478, -3.631567, 125.336609, -25.443512, 52.073212
1649447307.482351, -6.621314, -18.140866, 5.075408, -0.629201, -3.264194, -3.574516, 130.826859, -22.419281, 49.102371
1649447307.515675, -4.164714, -10.982652, 2.987664, -0.465391, -2.104695, -2.844648, 136.567108, -19.837906, 43.065262
1649447307.549014, 6.565051, -8.226926, 3.135806, 0.900353, -0.285541, -0.808309, 138.182755, -19.522293, 43.115692
1649447307.582360, 6.317400, -8.804228, 1.083227, -0.009487, -0.919140, 0.300827, 137.415405, -20.930573, 44.759354
1649447307.615371, -1.235258, -2.561945, -0.438737, 0.541291, 0.976196, 1.809331, 134.882126, -24.329803, 45.270508
1649447307.648382, 5.764789, -4.747852, 0.470910, 0.518254, 1.855724, 3.210806, 126.529388, -30.133942, 50.218140
1649447307.681356, 2.695572, -3.771167, 0.484377, 0.177899, 1.483787, 4.697848, 117.375305, -34.244110, 53.091614
1649447307.715246, 3.741539, -5.745934, 0.498742, 0.146739, 1.618127, 5.366486, 106.401978, -37.148880, 55.272827
1649447307.748608, 3.434931, -7.352743, 1.034145, -0.084420, 1.361049, 5.911190, 89.828857, -37.108292, 56.221436
1649447307.782001, 4.606594, -9.285911, 1.596933, -0.159265, 1.297946, 6.310048, 77.575790, -32.594864, 56.789429
1649447307.815375, 3.618985, -12.168231, 2.385672, -0.267653, 1.042526, 6.105206, 68.034210, -25.687500, 56.781754
1649447307.848730, 5.288343, -13.879786, 3.147777, -0.141509, 0.051904, 5.497354, 60.715530, -15.540955, 56.197327
1649447307.882110, 2.127248, -14.828039, 1.857601, 0.501060, 0.220014, 3.479138, 58.677277, -7.908630, 56.972198
1649447307.915502, 2.866757, -11.831247, 2.372803, 0.286323, 0.469712, 0.453342, 58.244370, -2.763031, 56.691559
1649447307.948885, 3.834164, -10.965743, 1.844283, 0.123748, 1.101474, -2.482483, 58.726151, -1.622040, 55.411377
1649447307.981833, -1.533785, -14.741399, 6.660370, -0.025565, -0.945484, -2.918221, 59.924866, -2.538773, 54.163010
1649447308.015605, -1.250073, -19.761741, -4.216638, 0.460447, 2.805211, -3.855247, 61.051743, -3.694168, 53.043640
1649447308.048983, 14.473697, -2.791938, 0.845004, 1.013441, 1.072034, -2.434864, 61.286728, -4.199493, 52.038086
1649447308.082382, 3.676596, -10.776601, 4.849755, 0.258255, -0.654932, -1.977716, 62.819733, -5.276077, 51.918808
1649447308.115739, 3.940557, -9.858425, 3.494786, 0.208659, -0.937027, -1.678593, 64.511093, -5.475449, 52.612305
1649447308.149052, 0.945410, -8.991424, 0.766444, 0.362037, 0.183290, -1.324076, 65.257980, -5.860901, 53.027390
1649447308.182338, 1.203386, -9.967361, 2.210596, 0.239527, 0.065537, -1.080892, 65.725418, -6.436951, 52.600388
1649447308.215674, 0.779612, -9.462932, 2.742408, 0.203028, -0.436044, -0.895158, 66.615829, -6.386551, 53.308609
1649447308.249042, -0.011672, -9.390358, 2.792238, 0.208317, -0.208348, -0.829671, 67.149048, -6.244232, 53.463531
1649447308.281782, 1.277905, -9.415348, 2.805855, 0.180269, -0.454651, -0.881659, 67.873154, -6.539062, 53.209625
1649447308.315660, -0.262614, -9.166201, 2.387019, 0.202793, -0.244504, -0.957109, 68.904617, -7.076340, 53.841843
1649447308.349008, 1.598728, -9.926659, 2.995595, 0.236408, -0.625229, -1.072549, 69.842575, -6.674347, 54.006622
1649447308.382018, 0.044742, -10.862493, 2.685845, 0.219374, -0.853104, -1.209444, 71.040115, -6.706329, 54.453751
1649447308.415481, -1.746720, -11.648689, 2.391209, 0.114781, -0.703803, -1.780160, 73.176834, -7.469955, 54.422531
1649447308.448988, -1.380856, -13.356054, 2.531868, 0.035636, -0.899837, -2.259552, 75.008438, -7.391434, 54.919464
1649447308.482322, -2.516007, -13.934254, 1.938705, -0.111398, -0.871678, -2.878302, 77.461304, -7.548065, 54.884598
1649447308.515667, -3.333327, -15.190012, 4.374955, -0.024908, -1.947742, -3.395533, 81.936859, -7.523239, 54.583801
1649447308.548275, -6.228965, -20.047997, 4.077774, -0.093134, -2.373912, -3.835687, 86.019226, -5.970459, 54.279144
1649447308.582359, -3.226037, -17.904588, 7.494599, -0.886877, -3.441057, -3.324961, 90.512863, -3.985992, 53.410522
1649447308.615644, -3.936666, -8.426542, 2.057966, 0.191489, -0.063060, -1.906682, 94.368729, 0.271652, 50.730499
1649447308.649002, 8.477270, -11.159524, 3.919757, 0.719639, 0.313622, -0.268087, 96.211151, 4.500427, 49.484360
1649447308.682341, 1.229123, -4.687248, -0.096516, -0.446951, -0.108845, 0.945577, 99.108932, 7.398834, 47.724777
1649447308.715663, 1.731008, -2.109591, 0.350002, 0.385603, 2.050090, 2.566607, 102.105362, 8.990616, 46.348053
1649447308.749000, 3.910479, -4.305972, 1.335815, 0.004541, 1.904885, 3.985040, 107.551910, 7.283157, 44.825806
1649447308.782319, 3.806032, -4.800973, 0.729932, -0.044884, 1.705882, 4.912043, 110.467926, 3.041031, 44.647476
1649447308.815157, 3.929334, -6.227169, 1.545457, -0.354872, 1.016546, 5.405930, 111.925583, -3.916916, 44.268478
1649447308.848981, 3.691410, -8.290223, -0.322469, -0.241132, 1.770155, 5.893727, 109.871719, -15.077362, 42.526535
1649447308.882331, 4.172196, -10.965593, 2.787898, -0.378043, 1.459026, 5.977912, 104.718643, -22.370422, 41.895386
1649447308.915662, 4.761319, -11.755381, 2.915988, -0.557046, 0.410202, 5.662709, 98.002365, -28.292145, 40.150787
1649447308.949017, 3.426551, -13.171252, 1.866280, 0.262596, 0.027259, 4.671387, 87.286285, -33.811584, 37.101822
1649447308.982309, 2.826205, -13.804368, 2.763807, 0.353902, -0.299780, 3.055890, 80.174713, -35.291870, 36.577606
1649447309.015698, 2.799121, -11.405677, 2.406173, 0.258741, -0.192073, 0.464349, 75.730453, -35.803741, 36.828705
1649447309.048990, 4.475511, -10.899753, 1.663521, 0.192112, 0.861103, -2.673441, 74.797241, -37.944534, 34.494141
1649447309.082518, 0.130334, -11.462091, 7.113173, 0.363116, 0.003303, -2.449278, 76.666290, -38.981186, 34.565430
1649447309.115662, -11.645547, -26.480020, -3.724181, 0.180747, 2.164530, -3.843346, 79.026062, -38.675934, 33.990997
1649447309.148974, 15.899145, -3.590255, -0.553210, 1.025862, 1.601100, -2.610647, 82.142441, -37.871017, 34.268311
1649447309.182344, 4.239832, -11.925369, 7.219266, 0.335784, -0.608314, -2.025108, 85.393112, -37.622131, 34.238113
1649447309.215587, 3.978265, -9.242516, 2.803461, 0.258060, -1.126244, -1.771335, 87.894775, -37.153564, 34.834991
1649447309.248561, 0.641047, -9.578602, 0.453701, 0.523234, 0.466618, -1.356360, 89.417053, -36.359741, 35.400757
1649447309.281738, 3.007417, -10.140342, 3.880103, 0.241948, -0.526251, -1.019492, 91.230637, -36.382309, 34.582169
1649447309.315168, 0.511910, -9.331551, 2.366668, 0.199023, -0.480421, -0.897433, 92.132584, -36.191101, 35.667938
1649447309.348546, -0.472556, -9.306411, 2.915988, 0.121481, -0.221789, -0.857094, 93.073715, -35.145752, 35.822449
1649447309.381903, 0.474052, -9.132682, 2.321927, 0.182232, -0.282148, -0.983461, 94.543762, -35.420593, 35.027863
1649447309.415298, -0.890344, -8.842385, 2.122460, 0.289260, -0.083542, -1.092735, 95.939636, -34.803452, 35.828796
1649447309.449003, 0.632369, -9.160365, 3.167080, 0.289068, -0.107815, -1.119690, 96.735703, -33.754517, 36.100220
1649447309.482490, 0.327856, -9.586234, 2.523788, 0.358900, -0.607780, -1.366156, 98.086563, -32.948868, 36.597870
1649447309.515646, -0.635212, -11.449072, 3.389292, 0.278633, -0.627827, -1.683235, 100.649445, -32.642929, 35.857635
1649447309.549169, -0.146944, -13.418902, 2.860323, 0.221404, -0.900177, -2.070809, 102.680954, -30.827408, 35.872711
1649447309.582300, -1.826028, -14.503625, 2.279729, 0.085019, -0.866559, -2.641218, 105.228088, -28.731796, 35.672379
1649447309.615646, -2.145354, -15.254506, 3.610456, 0.269270, -1.851190, -3.067300, 109.258621, -26.041534, 34.532684
1649447309.648985, -2.433257, -18.624794, 2.517653, 0.236395, -2.683966, -3.463433, 112.363266, -22.685028, 34.128571
1649447309.682333, -5.481824, -18.206856, 3.129521, -0.131287, -3.485015, -3.358722, 115.265091, -19.086166, 32.725632
1649447309.715681, -3.193416, -10.240749, 2.426673, -0.234511, -2.163233, -2.359630, 117.702728, -15.499725, 29.493027
1649447309.749170, 4.711490, -6.092794, 2.344223, 0.291629, -0.545349, -0.556666, 118.137634, -13.943115, 30.848938
1649447309.782304, 8.488193, -8.390929, 2.472462, -0.082951, -0.162010, 0.571175, 117.615219, -13.208374, 33.018143
1649447309.815638, -0.523732, -2.511966, -0.270395, 0.479112, 1.428665, 2.645164, 116.695999, -14.002335, 34.360352
1649447309.849162, 7.017405, -6.127361, 0.569521, 0.278389, 1.801502, 3.722439, 113.332748, -16.536133, 38.538177
1649447309.882314, 2.334646, -3.671658, 1.068861, 0.008438, 1.348614, 4.772405, 109.650620, -18.846130, 41.072830
1649447309.915631, 4.333804, -6.668600, 0.628927, -0.088510, 1.114851, 5.418904, 105.464493, -21.061066, 43.527756
1649447309.948805, 3.747524, -8.164078, 1.245434, -0.212203, 0.952081, 5.885772, 98.494873, -24.643051, 45.355072
1649447309.982284, 3.755754, -9.098565, 1.246032, -0.143770, 1.004035, 5.971315, 92.815445, -26.177719, 47.480103
1649447310.015621, 5.126884, -11.812991, 3.349787, -0.349343, 0.132409, 5.617710, 86.688904, -26.840240, 48.448029
1649447310.049149, 3.498677, -12.063484, 2.320131, -0.020621, -0.106578, 4.911002, 79.147675, -27.675598, 49.137939
1649447310.082491, 2.297536, -13.655479, 1.572542, 0.465760, -0.228060, 3.743082, 74.929672, -26.683441, 51.261612
1649447310.115634, 3.307889, -12.362460, 2.860024, 0.332956, -0.460287, 1.418680, 72.736084, -25.755524, 53.081314
1649447310.148939, 1.411980, -10.798149, 1.367089, 0.269080, 0.885751, -2.052464, 73.356415, -27.527435, 53.551773
1649447310.182292, 0.768988, -12.408399, 2.304718, 0.335963, 2.027076, -3.508341, 75.122787, -28.998062, 54.079056
1649447310.215614, -15.872659, -17.389087, -2.909703, -0.006528, 0.939650, -3.054638, 77.440643, -30.071854, 54.827682
1649447310.248929, 17.885884, -3.904793, -1.728015, 0.894442, 1.942358, -2.829053, 79.485123, -31.122803, 54.575790
1649447310.282285, 3.088969, -11.014824, 6.262334, 1.037511, 0.189450, -2.558220, 82.559814, -32.270233, 56.056961
1649447310.315613, 3.708918, -8.514679, 4.114884, 0.701666, -0.355063, -2.112007, 85.040588, -31.981354, 57.487473
1649447310.348952, 4.603152, -10.108319, 2.228852, 0.493430, 0.001030, -1.373397, 87.205765, -31.430099, 58.239304
1649447310.382275, 4.144064, -11.090092, 4.134786, 0.249067, -0.664628, -1.027179, 89.256104, -31.717468, 58.297562
1649447310.415630, 0.160711, -10.384850, 2.958036, 0.166638, -0.404551, -0.773411, 90.712021, -31.501312, 58.788452
1649447310.448928, 0.472107, -10.481067, 2.762609, 0.113045, -0.586050, -0.786519, 91.888382, -30.881500, 59.022247
1649447310.482278, -0.850839, -10.177003, 1.796848, 0.165415, -0.564863, -0.874403, 93.811859, -31.276337, 58.671616
1649447310.515610, -0.725144, -8.874408, 1.966238, 0.169836, -0.263761, -1.151062, 95.124252, -30.770645, 58.872955
1649447310.548966, 0.324714, -7.883059, 3.082086, 0.221647, -0.092052, -1.173697, 96.421555, -30.154068, 59.542831
1649447310.582266, 2.450316, -9.894338, 2.576760, 0.261876, -0.676300, -1.204795, 98.239075, -29.540634, 59.276886
1649447310.615608, 0.906654, -11.451317, 1.706318, 0.180726, -0.744862, -1.331546, 101.135620, -29.534058, 59.219391
1649447310.648927, -1.026664, -11.596465, 1.814506, 0.113856, -0.802577, -1.789811, 103.112503, -28.540848, 59.287186
1649447310.682290, -2.907309, -12.999468, 2.749292, -0.014126, -0.621169, -2.540136, 105.527100, -27.296814, 59.173248
1649447310.715600, -2.978088, -13.079524, 4.402937, -0.020684, -1.316471, -3.127107, 109.998154, -26.139923, 57.388016
1649447310.748942, -3.659388, -15.595830, 3.675997, 0.109403, -2.350682, -3.535136, 114.399048, -23.766373, 55.967941
1649447310.782284, -4.645050, -18.893842, 6.646603, -0.705145, -3.601686, -3.426989, 118.772934, -21.103317, 53.285675
1649447310.814924, -3.594146, -11.370513, 1.599177, -0.264396, -1.524210, -2.604236, 122.216248, -19.214951, 48.539429
1649447310.848542, 6.678626, -8.015787, 1.932869, 0.484481, -0.144631, -0.907438, 121.602127, -17.866699, 48.206863
1649447310.881575, 8.785224, -8.689007, 1.565958, -0.029343, -0.910898, 1.013126, 119.123840, -17.621674, 48.467911
1649447310.915585, 1.519420, -2.388815, -1.612495, 0.835083, 1.182290, 2.565425, 114.306213, -19.464905, 48.525604
1649447310.948931, 6.194099, -5.519233, -0.117017, 0.607777, 1.439378, 3.771284, 108.477905, -20.410736, 49.738510
1649447310.982256, 2.866159, -4.844517, -0.442927, 0.247518, 0.997466, 5.013605, 102.005554, -20.925842, 50.403732
1649447311.015600, 4.197335, -6.326528, -0.913837, 0.152051, 1.077158, 5.483554, 95.809174, -20.504929, 49.787491
1649447311.048252, 3.214365, -7.328801, -0.970998, 0.067755, 1.289890, 5.835414, 87.843307, -19.883469, 48.434799
1649447311.082261, 3.270479, -9.067889, -0.476446, -0.081317, 1.481486, 5.997180, 82.584000, -17.499298, 47.631714
1649447311.115594, 3.798850, -13.448829, 1.888875, -0.675866, 1.142252, 5.782656, 78.285706, -15.086563, 46.256409
1649447311.148985, 2.810793, -13.039870, 0.857872, -0.377099, 1.020055, 4.806592, 73.824509, -12.709320, 43.669525
1649447311.182260, 3.346046, -13.833697, 1.124078, 0.204101, 1.238535, 3.179102, 71.959015, -10.602478, 43.178970
1649447311.215624, 5.827038, -9.459790, 3.540725, 0.026711, 0.014183, -0.288242, 71.902603, -10.329727, 43.115128
1649447311.248924, 4.940435, -9.805453, 3.856161, 0.145430, -0.006068, -2.282804, 73.731430, -11.903519, 41.929230
1649447311.282314, -0.084845, -16.010326, 9.638906, 0.063225, -1.862085, -2.714865, 76.465408, -13.478348, 42.746658
1649447311.315586, 16.611869, -1.257704, -3.687220, 0.753851, 3.116757, -2.896638, 78.351471, -14.328354, 43.033676
1649447311.348921, 6.046556, -11.519851, 6.904728, 1.213261, 0.662926, -2.714167, 80.007294, -14.722580, 43.294907
1649447311.381655, 2.798822, -7.340473, 3.108871, 0.161245, -1.397902, -1.797781, 82.395599, -15.815079, 43.704361
1649447311.415570, 2.556259, -10.914417, 2.324471, 0.447461, -0.077202, -1.252624, 83.684799, -15.644531, 44.798035
1649447311.448918, 3.510947, -10.192116, 3.323451, 0.301419, -0.827480, -0.872643, 84.691360, -15.158463, 45.033173
1649447311.482260, -0.014216, -9.630377, 2.338088, 0.251564, -0.632877, -0.803758, 86.195084, -15.727432, 44.911545
1649447311.515630, -0.194379, -10.123732, 3.442712, 0.094218, -0.360917, -0.638591, 86.833282, -15.625458, 45.640579
1649447311.548921, -0.275483, -9.341427, 2.043451, 0.079929, -0.293358, -0.703975, 87.603638, -15.427933, 45.717194
1649447311.582257, 0.253636, -9.055469, 1.344644, 0.119721, -0.070670, -0.899029, 88.574890, -16.102051, 45.068527
1649447311.615603, -0.680402, -8.674342, 2.712182, 0.200104, -0.034566, -0.966545, 89.434097, -15.559402, 45.830658
1649447311.648906, 1.168819, -10.564415, 1.736095, 0.194815, -0.468452, -1.174595, 90.492813, -15.357742, 46.445511
1649447311.682307, 0.092177, -11.408820, 2.348712, 0.157797, -0.539637, -1.368694, 91.722229, -15.205856, 46.556137
1649447311.715624, -0.982969, -12.153716, 2.615965, 0.076243, -0.669166, -1.770272, 93.998047, -15.302612, 46.538528
1649447311.748912, -2.680159, -14.391247, 2.196979, -0.101075, -0.703119, -2.467207, 96.236679, -14.734421, 47.111603
1649447311.782246, -2.996792, -14.107085, 2.654272, -0.210297, -1.026499, -3.060619, 98.845703, -14.104202, 47.052765
1649447311.815596, -3.920505, -14.758009, 3.400066, -0.138009, -1.824418, -3.427086, 103.930527, -13.426331, 46.537628
1649447311.848915, -7.069629, -19.131317, 3.254768, -0.457470, -2.514324, -3.919720, 108.045868, -11.597580, 45.896164
1649447311.882263, -3.222446, -16.106243, 4.471022, -0.957260, -2.018029, -3.193870, 112.726456, -9.773193, 44.703079
1649447311.915568, 0.184653, -8.051401, 2.560449, -0.103771, 0.190451, -2.043978, 116.687210, -8.327255, 43.864746
1649447311.948913, 9.565584, -9.762657, 5.601534, 0.550411, 0.954872, -0.391232, 118.191498, -8.323669, 45.648254
1649447311.981570, 1.203535, -3.511845, -0.006285, -0.399125, 0.589970, 1.458022, 119.016296, -9.620163, 46.869568
1649447312.015557, 3.838653, -3.254468, 0.751779, 0.151088, 1.979185, 2.896730, 117.518204, -14.531189, 48.787811
1649447312.048958, 4.458153, -4.536863, 0.720954, -0.253026, 1.583244, 3.936015, 114.178497, -19.551941, 51.173828
1649447312.082238, 3.363853, -4.594473, 0.858770, -0.166946, 2.019889, 4.885161, 108.082901, -24.678177, 53.559814
1649447312.115591, 3.297414, -6.378752, 1.791312, -0.394610, 1.673473, 5.276469, 100.083511, -28.969452, 54.627075
1649447312.148915, 4.005350, -8.115595, 1.865981, -0.497704, 1.286718, 5.604637, 87.331146, -32.914871, 53.564651
1649447312.182234, 3.131017, -10.146776, 2.740313, -0.449909, 1.101015, 5.617694, 76.352264, -32.269669, 52.650528
1649447312.215566, 4.448277, -12.072463, 3.250278, -0.459985, 0.401681, 5.353136, 66.673477, -29.095840, 51.058762
1649447312.248904, 3.126678, -13.223625, 3.217657, 0.007108, 0.054000, 4.717870, 56.055084, -21.950256, 48.666946
1649447312.282228, 4.481796, -13.582156, 3.593996, 0.473167, -0.819828, 2.800952, 51.777908, -14.773422, 49.034042
1649447312.315566, 2.879177, -11.779023, 2.383577, 0.437235, -0.327888, 0.105527, 50.762512, -9.719284, 50.035950
1649447312.348894, 4.011784, -11.829451, 1.522114, 0.257449, 0.600959, -2.270383, 51.751373, -8.674515, 48.978119
1649447312.382215, -7.318177, -15.916653, 0.918326, -0.141975, -1.088928, -2.800316, 53.618805, -9.613525, 48.689407
1649447312.415576, 6.770653, -12.548909, -4.554819, 0.692972, 2.800377, -3.658877, 56.446075, -10.688644, 47.124420
1649447312.448809, 8.295310, -4.941183, 4.389021, 1.145842, 1.034668, -2.670628, 58.248871, -11.134979, 46.029785
1649447312.481739, 5.407903, -11.671733, 5.178509, 0.329161, -0.716590, -2.099949, 60.830261, -13.129608, 46.742813
1649447312.515559, 3.545064, -10.881497, 1.031751, 0.396875, 0.121660, -1.616343, 62.552917, -13.410767, 47.665451
1649447312.548893, 2.908955, -10.129718, 2.536507, 0.325939, -0.291777, -1.141402, 63.576614, -13.392288, 48.216599
1649447312.582226, 1.340454, -9.725696, 3.526360, 0.186867, -0.465716, -0.958372, 65.167908, -14.565552, 48.183334
1649447312.615441, 0.865803, -9.699210, 2.871396, 0.171371, -0.461481, -0.821458, 66.298492, -14.635757, 49.027542
1649447312.648448, 0.162058, -9.610475, 2.480543, 0.245628, -0.593954, -0.873030, 67.298096, -14.258789, 49.728180
1649447312.682219, -0.262913, -9.492860, 2.242768, 0.247301, -0.496029, -1.008380, 69.162003, -15.270325, 49.533157
1649447312.715552, 1.387889, -8.851812, 2.844012, 0.318192, -0.467393, -1.078938, 70.236923, -15.298828, 50.531570
1649447312.748909, 1.828272, -10.613496, 2.050334, 0.287911, -0.726338, -1.125488, 71.623001, -14.824570, 51.611343
1649447312.782210, -0.750133, -11.422138, 2.177077, 0.168054, -0.785272, -1.496652, 74.625076, -15.716049, 51.727432
1649447312.815538, -2.488473, -13.952210, 3.945644, 0.066052, -0.979573, -2.124460, 76.987518, -15.962219, 52.244659
1649447312.848131, -4.199280, -14.435839, 2.016217, -0.155244, -1.044028, -2.837105, 80.381760, -15.675980, 52.801270
1649447312.882287, -5.920412, -15.001918, 3.949834, -0.226380, -1.592427, -3.495049, 84.260513, -15.504990, 52.718689
1649447312.915542, -5.417629, -17.806576, 2.579004, -0.173790, -2.147006, -3.974347, 91.813583, -15.321167, 51.805817
1649447312.948881, -2.940977, -17.229274, 7.057358, -0.938599, -3.465382, -3.434952, 97.477753, -13.670319, 50.401459
1649447312.982225, -3.904943, -9.107244, 3.156306, 0.097627, -0.766614, -2.577962, 101.594116, -11.571777, 49.005768
1649447313.015546, 9.086594, -9.063999, 4.310760, 1.083271, -0.311097, -0.484515, 104.620819, -9.462891, 47.513000
1649447313.048880, 1.002572, -5.491102, -1.531391, -0.034886, -0.512757, 1.306113, 106.369919, -8.290909, 46.191101
1649447313.082213, 3.240552, -1.706168, -0.396390, 1.126194, 1.852303, 2.994379, 106.651062, -7.998337, 45.953705
1649447313.115529, 4.869058, -4.274249, 0.251092, 0.497078, 1.346158, 4.154837, 105.771347, -10.823547, 46.356155
1649447313.148878, 4.986524, -4.839280, -0.239420, 0.399354, 1.155432, 5.270738, 103.509171, -13.464981, 46.991547
1649447313.182215, 3.158999, -6.808661, 1.440860, -0.126866, 0.261930, 5.760451, 100.289536, -15.948517, 47.052155
1649447313.215567, 3.281104, -6.521506, -0.821959, 0.189388, 0.962485, 6.122785, 95.586914, -18.109283, 47.660324
1649447313.248934, 3.633800, -11.354202, 0.795773, -0.015553, 1.386490, 6.369047, 87.289444, -19.422134, 48.841049
1649447313.282204, 3.798401, -13.289016, 3.059042, -0.308440, 0.837584, 5.994741, 80.823013, -17.270416, 50.557098
1649447313.315572, 3.363255, -14.993538, 1.934066, 0.096822, 0.583904, 5.072613, 76.541702, -13.693268, 51.810394
1649447313.348860, 4.262278, -15.100978, 1.312322, 0.261347, 0.114954, 1.882943, 73.237808, -9.244720, 52.409225
1649447313.382272, 4.572027, -10.614244, 3.228731, 0.029066, 0.250261, -1.526576, 74.183594, -6.921082, 53.162766
1649447313.415040, 6.229563, -11.263821, 2.547131, 0.216805, 0.482923, -3.407156, 76.539444, -6.047165, 52.391205
1649447313.448871, -14.509610, -17.764976, -0.037559, -0.561778, -1.748571, -2.470652, 80.619995, -6.489975, 51.148117
1649447313.482205, 18.680758, -6.333112, -1.958158, 1.008054, 2.968869, -2.847562, 81.835342, -6.399948, 50.204651
1649447313.515534, 5.278915, -10.327389, 6.141576, 0.902325, 0.256625, -2.470117, 83.431122, -5.343628, 50.329941
1649447313.548928, 4.118326, -9.008483, 5.065083, 0.151928, -1.327520, -1.823793, 85.575348, -5.150650, 50.510468
1649447313.582193, 2.511368, -9.952098, 1.325191, 0.372942, 0.164524, -1.377084, 87.482666, -5.510559, 50.135941
1649447313.615541, 2.583194, -10.267235, 2.498948, 0.245288, -0.189309, -1.002011, 88.344345, -4.820328, 50.335556
1649447313.648878, 1.081581, -10.108319, 2.830545, 0.129430, -0.637361, -0.852239, 89.147888, -4.111420, 50.246414
1649447313.682191, -0.296282, -9.491513, 2.744354, 0.160911, -0.189114, -0.786903, 90.277603, -4.642105, 49.817780
1649447313.715544, 0.053570, -8.768764, 2.793136, 0.192182, -0.328172, -0.877260, 91.030243, -4.214203, 50.394196
1649447313.748848, -0.862810, -9.509320, 2.140117, 0.213789, -0.181641, -1.046077, 91.780273, -3.400848, 50.820038
1649447313.782181, 0.165649, -10.328436, 2.347964, 0.282920, -0.442494, -1.245279, 93.570343, -3.698914, 50.197113
1649447313.815598, 0.201412, -11.724854, 2.981679, 0.249373, -0.644282, -1.352693, 94.777344, -3.075790, 50.434265
1649447313.848906, -0.820912, -11.897536, 2.185308, 0.130427, -0.745641, -1.733950, 96.551514, -2.276627, 50.225662
1649447313.882181, -2.931401, -13.556419, 2.507627, -0.023627, -0.586926, -2.238511, 99.256058, -2.082718, 49.861542
1649447313.915520, -4.072387, -13.932608, 3.175609, -0.245120, -0.915546, -3.032346, 102.086182, -1.093613, 49.910477
1649447313.948857, -4.926968, -13.939491, 4.434211, -0.242158, -1.663532, -3.602222, 105.305496, 0.421799, 49.545532
1649447313.982195, -5.152023, -15.905729, 2.245761, -0.036050, -2.237021, -3.917747, 109.291580, 2.499863, 48.987488
1649447314.014591, -3.509151, -18.145804, 6.646453, -1.032320, -3.297950, -3.560439, 116.154724, 5.082230, 46.351990
1649447314.048853, -4.785560, -9.379285, 2.315941, -0.019928, -0.556574, -2.693776, 120.233200, 6.878250, 46.105988
1649447314.081914, 10.035296, -9.461586, 3.530699, 1.063421, 0.126728, -0.751206, 122.976120, 8.188980, 46.788818
1649447314.115513, 1.307683, -4.676025, -0.859818, 0.113101, -0.766774, 1.269682, 127.459366, 5.340485, 45.181320
1649447314.148844, 3.387795, -3.381959, -0.703596, 0.843676, 1.389892, 2.885884, 129.097351, 0.721313, 46.675552
1649447314.182177, 6.312013, -4.710592, 0.193631, 0.492500, 1.537837, 4.071830, 128.485260, -5.852081, 48.436600
1649447314.215568, 2.905813, -4.718672, 0.355090, 0.301786, 1.819339, 5.264357, 124.100662, -18.330582, 50.572876
1649447314.248193, 4.451120, -6.659921, 1.616535, 0.003274, 1.322852, 5.715871, 117.112976, -27.147018, 51.714661
1649447314.281677, 4.321833, -8.328230, 1.416769, -0.281916, 1.124784, 6.016156, 106.969879, -33.643402, 52.054276
1649447314.315510, 3.574693, -9.102306, 0.213383, -0.231548, 1.771852, 5.999971, 95.090698, -36.800003, 51.254730
1649447314.348859, 4.478653, -12.034904, 2.345121, -0.436027, 1.087709, 5.629767, 79.736374, -35.797043, 48.698456
1649447314.382184, 3.447800, -13.219136, 2.526032, -0.183126, 0.708825, 4.786839, 72.242508, -31.715454, 47.374161
1649447314.415517, 2.020257, -13.655479, 1.199645, 0.414766, 0.897519, 3.469263, 68.133118, -27.037704, 46.789444
1649447314.447871, 3.618237, -11.056573, 2.433706, 0.162694, 0.148426, 0.127853, 67.309067, -24.802399, 45.720169
1649447314.482190, 3.954174, -10.500520, 2.033874, 0.154573, 0.737130, -2.226716, 70.271301, -25.594223, 46.036209
1649447314.515530, 7.131279, -10.814609, 3.941305, 0.261059, -0.127011, -2.950374, 74.385620, -26.846451, 46.373306
1649447314.548841, -23.938276, -33.537079, -2.407070, 0.364815, 2.270527, -4.151381, 79.799942, -29.239731, 46.308731
1649447314.581274, 24.113950, -0.655862, -1.494131, 0.978066, 1.321189, -2.690145, 83.280487, -29.865753, 46.877884
1649447314.615513, 2.721459, -12.596942, 6.240636, 1.064635, 0.289103, -2.455312, 86.558060, -29.415817, 48.507675
1649447314.648852, 6.083218, -8.793304, 2.784905, 0.442229, -0.525674, -1.750465, 90.398926, -29.714661, 48.874588
1649447314.682177, 1.022773, -10.325593, 1.778144, 0.493816, 0.345633, -1.174725, 92.037842, -29.526154, 49.683868
1649447314.715506, 4.816535, -10.666468, 3.766977, 0.180341, -0.819891, -0.931697, 93.755417, -29.051224, 49.926407
1649447314.748825, -1.129465, -10.296264, 2.513164, 0.151307, -0.494188, -0.688066, 95.079208, -28.441895, 50.129074
1649447314.781353, 1.367089, -9.375095, 2.984522, 0.116341, -0.571232, -0.858612, 96.664139, -28.865402, 50.107574
1649447314.815514, -1.050755, -9.768792, 2.397643, 0.140121, -0.432194, -0.783935, 98.026794, -28.294785, 50.216080
1649447314.848833, 0.463278, -8.941745, 1.888875, 0.147882, -0.474051, -1.014526, 99.595428, -27.612198, 50.805939
1649447314.882182, -0.452803, -7.901015, 3.145233, 0.192931, -0.066510, -1.195606, 101.293945, -27.841858, 50.390198
1649447314.915499, 2.567033, -9.606136, 3.250129, 0.278668, -0.682953, -1.181180, 103.045288, -27.035110, 51.125977
1649447314.948837, 0.422128, -11.575366, 0.969203, 0.165423, -0.869372, -1.485424, 104.963654, -26.167175, 51.508331
1649447314.982149, -2.518700, -12.351088, 2.061408, 0.060063, -0.498579, -2.179056, 108.481171, -25.403900, 50.723404
1649447315.015499, -0.290746, -13.825916, 3.668216, -0.081619, -0.834538, -2.488039, 111.412140, -24.119003, 50.418686
1649447315.048829, -2.465728, -13.817387, 3.498677, -0.152901, -1.374953, -2.889270, 115.037170, -22.294998, 49.867538
1649447315.082157, -5.091120, -16.840066, 2.441936, -0.153694, -1.985713, -3.616743, 118.689438, -19.562698, 48.678619
1649447315.115487, -7.980473, -20.020763, 3.759196, -0.555637, -2.552680, -3.851468, 124.565689, -16.090622, 45.934525
1649447315.148819, -3.405901, -14.668825, 3.523367, -0.743411, -1.916916, -3.061255, 128.019669, -13.437714, 43.670578
1649447315.182155, 6.901286, -8.061726, 3.002479, 0.395325, -0.164020, -0.864032, 129.205643, -11.258759, 44.390518
1649447315.215491, 7.955483, -8.602815, 1.675043, -0.124631, -0.457182, 0.317707, 129.083435, -11.791473, 45.474045
1649447315.248827, 0.260669, -2.914192, 0.248847, 0.111620, 1.064386, 2.059416, 127.506882, -14.108154, 46.592880
1649447315.282173, 5.531803, -5.061342, 0.802806, 0.258089, 2.169745, 3.489117, 123.409073, -17.301865, 49.635422
1649447315.315485, 2.078616, -4.095581, 0.423175, -0.309707, 1.724570, 4.844200, 116.469742, -23.458099, 50.976318
1649447315.348836, 4.447828, -5.343409, 1.476923, -0.402926, 1.632512, 5.448552, 109.551086, -27.114716, 51.694427
1649447315.382156, 4.732738, -6.677279, 1.971475, -0.484797, 1.236924, 6.059388, 102.188126, -30.207489, 51.938187
1649447315.415484, 5.709273, -8.504055, 2.420987, -0.402381, 0.293469, 6.467593, 94.304825, -31.967499, 51.400177
1649447315.448824, 4.211850, -11.290905, 2.976292, -0.202823, -0.300973, 6.157544, 83.687698, -33.121246, 49.380722
1649447315.482213, 3.053355, -13.204920, 2.717569, 0.452491, -0.000729, 5.532457, 76.555145, -31.779282, 49.493149
1649447315.515486, 1.745074, -14.484770, 3.009511, 0.617607, -0.021494, 3.604852, 71.034637, -29.973587, 50.371719
1649447315.548823, 4.129848, -12.000786, 2.213439, 0.500473, -0.006024, 0.975299, 66.904831, -28.459122, 49.883347
1649447315.582178, 2.796278, -10.589554, 1.518822, 0.296054, 0.612909, -1.723572, 67.532837, -29.197479, 49.926636
1649447315.615478, 5.151125, -10.826730, 1.989432, 0.346468, 2.221132, -3.449607, 70.033768, -30.716827, 49.729645
1649447315.648814, -25.445276, -24.116344, -1.318457, 0.136712, 0.509921, -2.993219, 72.765686, -32.995148, 48.561264
1649447315.682149, 18.289306, -7.327005, -4.027346, 0.634699, 2.301333, -3.160651, 75.538574, -34.014832, 47.825729
1649447315.715266, 3.096301, -6.379799, 6.138434, 1.101198, 0.372356, -2.827253, 78.629761, -34.326294, 49.506622
1649447315.748253, 5.532551, -9.408315, 2.646940, 0.412552, -0.724461, -2.130438, 82.017197, -34.510330, 50.163422
1649447315.781253, 0.013467, -10.481665, 3.390938, 0.494264, 0.498235, -1.459908, 84.808151, -34.858475, 50.341629
1649447315.815553, 5.522825, -10.115801, 2.943671, 0.321428, -0.543990, -1.182649, 86.387848, -34.579208, 51.337982
1649447315.848819, -1.235857, -10.004920, 2.172888, 0.256283, -0.309860, -0.843276, 87.678772, -34.198532, 52.080765
1649447315.882219, 2.390610, -9.663746, 3.878158, 0.124576, -0.638843, -0.909667, 89.915497, -34.385742, 51.357712
1649447315.915526, -1.153856, -9.161862, 2.127697, 0.138704, -0.379213, -0.919441, 91.331863, -34.287750, 51.901291
1649447315.948867, -0.266505, -9.339332, 2.045995, 0.206525, -0.312508, -1.111700, 92.675262, -33.564072, 52.516556
1649447315.982175, 0.446968, -8.890569, 2.845658, 0.227067, -0.172833, -1.187192, 94.663681, -33.473618, 52.010529
1649447316.015669, 2.776825, -10.335170, 3.263746, 0.276771, -0.915060, -1.286768, 96.767639, -33.035522, 52.856812
1649447316.048813, -2.779967, -12.331336, 1.366790, 0.159960, -0.837662, -1.906923, 98.926376, -32.204422, 52.835510
1649447316.082159, -2.835633, -14.124742, 1.804779, 0.039593, -0.678367, -2.520860, 103.424072, -31.083740, 52.467178
1649447316.115648, -1.708861, -14.128932, 2.591424, -0.137389, -0.824343, -3.068872, 106.929825, -29.374741, 51.946320
1649447316.148956, -3.472490, -14.915427, 3.411887, -0.031165, -1.996479, -3.591224, 110.895889, -27.173767, 51.281631
1649447316.182310, -5.561730, -21.351790, 3.255366, -0.208977, -2.682549, -4.004355, 115.231384, -23.678894, 50.592850
1649447316.215463, -4.543447, -16.997784, 6.980445, -0.712672, -3.059926, -3.496211, 120.717285, -19.166443, 45.654724
1649447316.248783, -0.563086, -10.025121, 2.596811, 0.094185, -0.814878, -2.286425, 121.694611, -15.089447, 45.142120
1649447316.282101, 10.369587, -11.196035, 2.963423, 0.303572, -0.269168, 0.053271, 120.941620, -12.254135, 45.909836
1649447316.315456, 0.724845, -4.359392, -0.943914, -0.076360, -0.023032, 1.554512, 119.739288, -10.861710, 45.128128
1649447316.348734, 4.361637, -3.214665, -0.240617, 0.687763, 1.831739, 3.133061, 117.132217, -10.447769, 47.801788
1649447316.382094, 3.915567, -4.333804, -0.474351, 0.125981, 1.762513, 4.573619, 114.205566, -10.767624, 49.968399
1649447316.415395, 3.562572, -4.349965, 0.296432, 0.018509, 1.604626, 5.404894, 110.699844, -13.465775, 52.159119
1649447316.448737, 3.923797, -6.091597, 0.628628, -0.186428, 1.025540, 5.886632, 108.026672, -16.040436, 53.309143
1649447316.482222, 4.170699, -7.596652, 0.492308, -0.194203, 0.457356, 6.391586, 104.670731, -19.452164, 54.145081
1649447316.515441, 3.206584, -10.412383, 0.129137, -0.060059, 1.131451, 6.539329, 97.781815, -24.117493, 54.592911
1649447316.548686, 4.737227, -13.440300, 2.461539, -0.238928, 0.671902, 6.168059, 91.027649, -27.406174, 54.573349
1649447316.582206, 2.564040, -14.577097, 1.392228, 0.329336, 0.632339, 4.322193, 84.699646, -28.307800, 54.217636
1649447316.615408, 6.008548, -14.284106, 4.201225, 0.252217, -0.307428, 2.064692, 80.067993, -27.916962, 55.185760
1649447316.648848, 4.050540, -10.150218, 3.132214, 0.193077, -0.405107, -1.439329, 79.769302, -28.857330, 53.918015
1649447316.682132, 3.634099, -12.273725, 2.120514, 0.052813, 0.404820, -3.397724, 83.052689, -29.982407, 53.661606
1649447316.715314, -22.060922, -25.998187, -5.057302, 0.376450, 3.505721, -3.925156, 86.407074, -30.866455, 53.535339
1649447316.748817, 24.346936, -3.185336, -1.328782, 0.932036, 2.524150, -2.966036, 88.691116, -31.963303, 53.703262
1649447316.782162, 3.927538, -11.186309, 8.864083, 0.864301, -0.051331, -2.743891, 91.799927, -31.521973, 54.854370
1649447316.815344, 5.065532, -8.299650, 1.176900, 0.655744, -0.426271, -1.851535, 95.173798, -31.246552, 55.283340
1649447316.848784, 2.648137, -10.721983, 1.356016, 0.568441, 0.222973, -1.321735, 97.401489, -30.686417, 55.620560
1649447316.882137, 4.493318, -10.733954, 4.305972, 0.266224, -0.692928, -0.979959, 99.121323, -30.612488, 55.838654
1649447316.915439, -1.057040, -9.803059, 2.136526, 0.202451, -0.339166, -0.741746, 100.428986, -30.273422, 56.210724
1649447316.948593, 1.753453, -9.787347, 3.355025, 0.121696, -0.493977, -0.736173, 101.378448, -29.488617, 56.743454
1649447316.981915, -0.623540, -9.157372, 2.401085, 0.157972, -0.528725, -0.765554, 103.290924, -29.684677, 56.061722
1649447317.015217, -0.604087, -9.046491, 1.842189, 0.206471, -0.354891, -0.987822, 104.803223, -29.339447, 56.166565
1649447317.048546, 0.788291, -8.790162, 2.493112, 0.277750, -0.375471, -1.109812, 106.180389, -28.294556, 56.559799
1649447317.081870, 1.002422, -10.942250, 2.622249, 0.262942, -0.771275, -1.241886, 108.830353, -28.009644, 56.192505
1649447317.115195, -0.760309, -11.590330, 2.319532, 0.175005, -0.802548, -1.583969, 111.207321, -27.289444, 55.427658
1649447317.148537, -1.537377, -14.030471, 2.101062, 0.030940, -0.747880, -2.225899, 113.837479, -26.161880, 55.466156
1649447317.181830, -3.324798, -14.651018, 2.031181, -0.187069, -0.736012, -2.895569, 118.538818, -24.781097, 53.882446
1649447317.215174, -4.578761, -14.696957, 4.572925, -0.244756, -1.455214, -3.455647, 122.913284, -23.166214, 52.093842
1649447317.248499, -5.307197, -19.809475, 3.042581, -0.267377, -1.954605, -3.979661, 127.473190, -20.360336, 49.456818
1649447317.281829, -4.819678, -17.488296, 6.592285, -0.980862, -3.240821, -3.584307, 131.795441, -17.484192, 45.276489
1649447317.315153, -4.085705, -9.684246, 2.926762, -0.185396, -0.976637, -2.660825, 135.392120, -15.122299, 39.397949
1649447317.348483, 10.391883, -10.637887, 5.172523, 1.071983, 0.332727, -0.404709, 135.069016, -14.617126, 38.980042
1649447317.381790, 1.722927, -7.959374, -0.865803, -0.053002, -1.146998, 1.134655, 133.912888, -15.087051, 37.077774
1649447317.415121, 1.435922, -2.497152, -0.554407, 0.920844, 0.893924, 2.735187, 131.187119, -19.066101, 35.393448
1649447317.448435, 4.527286, -5.260061, -0.213084, 0.684830, 1.099310, 4.172606, 127.956589, -23.914993, 35.679489
1649447317.481765, 4.901679, -4.973804, 0.371251, 0.691171, 1.286585, 5.232373, 123.009506, -29.638306, 35.806915
1649447317.515084, 4.302081, -6.192004, 0.618751, 0.227026, 0.854513, 5.611191, 113.083099, -38.656372, 33.711868
1649447317.548408, 3.703531, -7.271041, -0.645387, 0.050942, 1.768523, 5.953817, 102.873108, -43.354614, 31.735046
1649447317.581736, 3.956269, -9.278429, 0.966360, -0.128252, 1.992983, 6.014786, 92.333374, -44.933273, 29.025513
1649447317.615058, 6.101623, -12.337620, 3.423559, -0.656544, 0.678311, 5.664745, 83.459167, -44.072784, 25.935211
1649447317.648408, 4.045004, -12.075605, 1.687463, -0.332473, 0.139062, 4.744687, 74.524307, -43.804321, 22.452957
1649447317.681710, 3.461267, -13.871256, 2.485181, 0.282327, 0.292091, 2.853670, 69.508667, -44.519836, 23.592667
1649447317.715029, 2.574515, -10.990732, 2.868403, 0.330418, 0.350719, 0.312486, 66.510834, -46.624298, 26.327850
1649447317.748361, 3.691260, -9.655965, 2.182764, 0.334055, 0.883323, -2.044243, 66.952286, -51.778183, 28.883240
1649447317.781685, -2.750788, -15.301941, 5.765387, 0.266734, 0.202541, -2.928053, 70.437469, -55.748978, 31.222595
1649447317.815011, -6.298995, -29.025356, -5.373187, 0.481328, 3.643111, -4.379797, 74.662842, -57.935349, 33.727402
1649447317.848335, 18.394502, 1.032799, 1.867477, 1.255194, 1.476636, -2.866721, 80.343353, -59.315155, 36.989761
1649447317.881659, 4.456806, -9.551817, 6.058527, 0.291041, -0.938432, -2.198821, 84.029297, -59.795013, 39.183670
1649447317.914982, 5.302259, -10.718392, -0.278625, 0.432898, 0.281911, -1.912263, 87.444366, -59.783279, 40.833359
1649447317.948288, 2.883666, -9.783905, 1.669058, 0.400805, 0.271594, -1.170445, 90.140213, -59.766113, 42.686539
1649447317.981611, 1.513285, -9.820566, 2.372055, 0.245539, -0.515073, -0.902556, 91.923447, -59.576889, 43.489471
1649447318.014956, 1.187674, -9.967510, 3.407697, 0.129672, -0.400804, -0.658387, 93.334198, -59.201004, 43.632507
1649447318.048271, 0.113276, -9.612420, 3.140145, 0.121089, -0.381860, -0.691389, 94.476807, -58.543762, 44.294113
1649447318.081597, -0.040701, -9.800066, 1.723825, 0.161810, -0.194861, -0.732001, 96.020020, -58.505783, 44.717026
1649447318.114943, 1.314417, -8.975114, 1.841590, 0.208390, -0.317167, -0.874415, 97.439316, -57.902206, 45.120010
1649447318.148254, 0.255132, -9.555408, 1.750760, 0.222679, -0.331856, -1.087324, 98.697632, -57.443314, 46.469315
1649447318.181569, 0.278326, -10.667814, 2.786103, 0.260518, -0.740780, -1.232840, 101.686478, -56.670074, 46.597824
1649447318.214898, -2.609381, -12.078598, 2.003947, 0.133228, -0.754175, -1.867159, 104.661011, -55.826401, 47.156006
1649447318.248231, -2.423830, -13.386730, 1.491438, -0.032667, -0.533987, -2.466483, 108.145355, -54.054688, 48.019531
1649447318.281531, -2.596811, -13.708002, 3.312677, -0.208039, -0.853000, -2.976637, 113.844528, -51.180664, 47.885864
1649447318.314867, -5.293131, -13.671041, 3.091962, 0.053971, -2.052027, -3.503506, 119.137512, -47.898041, 47.261093
1649447318.348192, -5.469254, -19.802143, 2.031181, -0.100308, -2.928480, -4.004949, 124.412262, -43.371719, 46.092316
1649447318.381540, -3.523367, -18.436700, 5.860257, -0.802066, -3.200906, -3.505563, 129.479645, -38.053024, 42.722107
1649447318.414836, 3.501071, -8.673594, 2.184110, 0.166774, -0.035245, -1.839726, 131.710327, -32.550781, 42.723145
1649447318.448368, 10.106075, -10.853814, 3.055301, 0.141662, 0.476934, -0.269066, 129.827896, -29.618500, 45.148010
1649447318.481630, 1.500416, -2.890550, 0.673070, -0.001579, 1.188868, 1.212257, 126.384491, -28.428848, 46.345123
1649447318.514947, 6.540360, -3.762787, 1.504756, 0.258100, 1.959294, 3.007272, 118.661423, -29.411896, 49.846436
1649447318.548276, 4.115333, -3.279308, 0.297779, -0.412372, 1.131962, 4.516870, 111.544769, -30.033112, 50.332748
1649447318.581607, 4.172645, -4.411017, 0.001646, -0.329879, 1.658321, 5.223885, 103.407745, -30.575195, 51.188675
1649447318.614920, 2.582446, -6.020070, -0.386364, -0.447005, 1.976030, 5.593614, 93.073364, -29.269836, 51.110672
1649447318.648263, 5.720795, -8.011897, 1.587356, -0.553727, 1.134713, 6.122669, 85.570724, -26.824127, 50.483673
1649447318.681609, 4.439448, -8.914062, 1.847725, -0.481258, 0.526055, 6.240992, 79.725555, -23.432907, 50.360870
1649447318.714939, 5.698499, -11.279982, 2.836381, -0.362240, -0.266583, 5.882015, 76.127365, -19.248779, 50.437485
1649447318.748218, 2.427421, -13.459005, 2.428918, 0.225883, -0.307725, 4.401809, 73.903946, -14.766220, 49.919388
1649447318.781560, 3.534141, -13.174244, 2.459444, 0.564377, 0.079096, 2.337366, 74.152176, -12.159119, 49.861618
1649447318.814892, 3.441066, -10.826430, 2.371307, 0.384620, 0.201425, -0.721308, 76.736725, -11.791000, 49.819962
1649447318.848194, 3.049914, -11.614721, 2.516306, 0.422873, 1.528730, -3.435889, 81.174698, -13.618668, 47.928299
1649447318.881522, -22.337602, -27.143663, -2.837129, -0.044987, 0.277218, -3.620395, 85.025864, -15.418106, 47.250580
1649447318.914851, 21.018397, -3.585616, -5.017050, 0.844873, 2.289180, -3.150622, 87.551407, -17.650436, 46.788757
1649447318.948231, 6.051794, -10.917410, 6.581062, 0.622542, -0.465588, -2.087455, 90.613922, -18.338531, 47.940842
1649447318.981500, 5.563376, -9.091532, 3.649661, 0.678377, -0.783083, -1.637346, 93.176773, -18.762695, 47.859512
1649447319.014872, 1.386093, -9.948207, 2.987365, 0.572417, 0.141572, -1.127867, 94.702759, -18.539688, 48.446014
1649447319.048129, 2.442535, -10.624120, 4.859631, 0.238166, -0.796973, -0.933180, 96.186295, -18.655487, 48.996124
1649447319.081467, -1.729212, -10.136451, 3.028815, 0.156672, -0.324422, -0.763574, 96.923660, -18.637268, 48.303009
1649447319.114793, 1.151461, -8.726416, 3.468151, 0.135717, -0.463236, -0.842984, 98.215591, -18.796204, 48.031769
1649447319.148120, -0.685041, -9.188796, 2.845658, 0.166103, -0.474112, -0.858272, 99.265366, -18.758804, 48.551712
1649447319.181440, -0.462081, -9.001749, 2.668188, 0.151016, -0.350295, -1.056131, 101.189728, -19.032196, 48.228287
1649447319.214767, 0.398485, -9.282320, 3.239056, 0.235137, -0.285872, -1.064428, 102.276657, -18.731354, 47.830353
1649447319.248095, 2.614019, -11.656171, 2.697816, 0.218153, -1.027014, -1.142079, 103.696533, -18.595810, 47.566910
1649447319.281416, -1.957559, -12.273576, 1.822436, 0.058124, -0.807587, -1.703417, 106.513229, -18.562958, 47.154495
1649447319.314744, -1.119589, -13.122170, 3.269282, -0.064576, -0.899744, -2.174006, 108.745956, -18.760620, 46.112350
1649447319.348076, -3.405752, -13.967922, 3.606865, -0.243253, -0.818468, -2.596212, 111.506134, -18.422119, 45.216843
1649447319.381375, -4.126107, -14.505869, 3.484611, -0.306884, -1.662150, -3.262618, 116.421936, -18.261688, 43.194992
1649447319.414766, -5.910835, -19.343054, 1.883339, -0.260481, -2.164723, -3.650533, 120.044693, -17.200470, 40.697647
1649447319.448049, -6.681469, -17.742082, 6.263531, -0.876059, -3.132917, -3.626432, 123.683945, -15.920746, 36.759888
1649447319.481387, -3.992780, -10.455628, 2.292598, -0.193267, -1.223647, -2.739502, 126.174088, -14.747009, 34.090973
1649447319.514709, 7.824999, -10.723779, 4.620360, 0.870402, 0.396045, -0.793276, 126.511963, -15.121460, 33.757904
1649447319.548025, 0.543484, -7.997082, -0.072425, -0.096324, -0.448393, 1.006016, 124.809357, -16.537766, 33.070221
1649447319.581353, 4.120122, -3.384803, 0.017957, 0.683912, 1.316175, 2.557261, 121.136612, -18.867554, 34.517166
1649447319.614686, 4.178032, -4.292504, 0.799514, 0.158026, 1.457717, 3.900410, 114.684402, -21.868210, 36.396408
1649447319.647988, 3.322553, -4.761020, 0.459238, 0.159672, 1.949435, 4.901311, 108.591187, -23.602402, 37.356812
1649447319.681311, 4.555866, -6.172252, 2.216432, -0.059381, 1.405515, 5.378657, 102.817764, -24.041061, 37.167465
1649447319.714657, 4.207959, -8.068909, 0.921917, -0.156158, 1.080171, 5.868019, 96.215775, -23.886932, 37.203568
1649447319.747968, 3.981707, -8.691700, 1.381305, -0.042058, 1.047287, 5.888249, 92.113876, -23.127075, 36.987503
1649447319.781285, 4.199729, -10.797550, 2.317737, 0.008384, 0.868551, 5.598047, 88.767029, -23.558868, 38.051682
1649447319.814601, 4.160374, -13.190704, 2.385672, 0.122280, -0.083220, 4.670492, 85.476959, -24.346130, 38.948792
1649447319.847945, 3.622876, -13.951462, 1.231368, 0.633988, 0.598712, 2.883543, 82.011581, -24.743591, 41.491165
1649447319.881269, 7.250840, -12.535142, 3.636643, 0.354603, -0.063657, 0.211264, 81.284317, -25.792755, 43.091705
1649447319.914603, 3.774010, -10.567707, 1.374721, 0.419928, 1.348834, -2.638274, 83.403564, -27.705032, 44.317062
1649447319.947925, -8.538322, -14.414291, 6.168810, 0.147404, -0.745806, -2.743331, 87.543030, -28.705475, 45.906143
1649447319.981262, 11.181071, -15.854254, -6.034585, 0.588187, 2.391072, -3.836276, 91.123184, -29.324371, 47.581924
1649447320.014567, 8.311471, -6.155193, 2.424279, 1.291103, 0.078867, -2.688608, 94.358704, -29.472870, 49.191574
1649447320.047900, 6.185420, -9.520693, 5.434090, 0.579490, -1.146145, -1.752980, 98.056351, -28.458633, 50.697433
1649447320.081216, 1.896806, -9.418041, 3.257760, 0.451805, -0.032472, -1.290058, 99.936066, -27.552780, 51.151718
1649447320.114562, 4.340987, -10.481216, 3.840748, 0.174824, -0.455360, -0.917531, 101.316101, -27.740753, 52.307144
1649447320.147846, -0.585382, -10.297611, 1.938106, 0.084034, -0.449219, -0.638642, 102.847092, -27.013611, 51.808884
1649447320.181192, 2.182165, -10.182390, 2.451513, 0.074257, -0.612733, -0.552625, 103.714890, -26.499298, 51.597534
1649447320.214512, -0.291943, -9.032275, 3.244293, 0.175482, -0.819951, -0.542113, 105.156982, -26.536194, 51.491074
1649447320.247818, -0.186448, -8.545504, 3.311630, 0.161424, -0.355113, -0.635765, 106.133224, -26.661392, 51.823395
1649447320.281145, 1.203535, -8.549245, 2.752434, 0.214927, -0.676935, -0.827247, 107.216614, -25.577957, 51.843567
1649447320.314490, -1.849072, -9.113828, 1.989731, 0.251248, -0.526199, -1.174059, 109.012527, -24.915146, 52.255951
1649447320.347816, -0.083199, -10.765528, 2.457199, 0.260177, -0.551730, -1.342813, 110.875854, -24.605591, 52.197647
1649447320.381127, -2.044798, -12.008118, 2.033425, 0.185856, -0.711233, -1.985240, 113.662766, -22.930038, 52.063705
1649447320.414455, -2.594117, -13.743166, 2.323124, 0.036495, -0.501875, -2.528146, 116.684250, -21.303467, 52.471420
1649447320.447793, -2.647089, -14.155268, 3.211073, -0.117991, -0.857923, -2.976538, 120.048233, -19.901093, 52.494492
1649447320.481089, -3.375824, -13.953856, 1.826926, -0.039876, -1.695918, -3.453569, 124.386795, -16.734863, 51.175720
1649447320.515068, -5.494094, -18.095376, 1.726968, -0.090352, -1.970506, -3.922763, 128.255142, -13.329712, 49.954437
1649447320.547899, -6.715885, -18.525584, 5.032762, -0.558809, -2.041041, -3.688720, 132.016281, -11.018036, 48.513626
1649447320.581091, 0.988656, -10.294020, 2.445976, -0.293483, -0.881380, -2.006224, 134.076035, -9.579865, 46.915161
1649447320.614406, 10.601525, -9.950003, 4.902128, 0.543633, 0.697704, -0.548549, 132.356873, -10.104858, 48.861710
1649447320.647751, 1.827973, -6.039972, 0.290746, -0.308224, -0.222865, 1.178686, 130.219406, -12.381546, 49.570084
1649447320.681039, 4.947019, -4.230554, 1.450437, 0.371794, 2.184429, 3.432284, 125.122528, -15.763062, 52.204254
1649447320.714376, 5.584625, -4.422539, 1.789366, -0.426808, 0.881080, 4.272614, 115.662582, -19.445953, 54.936905
1649447320.747703, 3.322254, -3.602825, 0.603788, -0.474315, 0.715130, 5.265394, 108.694519, -22.361511, 55.721634
1649447320.781026, 3.473089, -5.121347, 1.199794, -0.512399, 0.648625, 5.742836, 101.358063, -23.637039, 55.962814
1649447320.815355, 4.562301, -7.639149, 1.298555, -0.322833, 0.831017, 6.387007, 91.161148, -23.044647, 56.819565
1649447320.847950, 4.425981, -9.579650, 1.637185, -0.285063, 0.810525, 6.210292, 83.895172, -21.229111, 56.427185
1649447320.882007, 5.795015, -14.915128, 3.944896, -0.290632, -0.082600, 5.575911, 78.166962, -18.551117, 57.188599
1649447320.915342, 3.084330, -14.374188, 3.160047, 0.268794, -0.234298, 4.407495, 73.087204, -13.654984, 57.706848
1649447320.948695, 4.945074, -14.259715, 2.328511, 0.488362, -0.422854, 2.440682, 71.374817, -9.688187, 58.234924
1649447320.982011, 3.576039, -11.645696, 1.257106, 0.291846, 0.111122, -0.610863, 71.665192, -8.046478, 58.610382
1649447321.015366, 3.398420, -12.644378, 1.622521, 0.228021, 1.624354, -3.572522, 72.421219, -8.278305, 57.774506
1649447321.048671, -21.502774, -18.731486, 2.164209, 0.104779, 0.330474, -3.409517, 73.870148, -8.763977, 57.256012
1649447321.082017, 18.505982, -8.705467, -5.306748, 0.381720, 2.213239, -3.326849, 74.280365, -9.848709, 56.102264
1649447321.115349, 3.409642, -14.049924, 4.533720, 0.646086, 0.184548, -2.538225, 75.518341, -10.317688, 56.363068
1649447321.148680, 4.475960, -7.403769, 4.997597, 0.830144, 0.130516, -2.071960, 76.989563, -10.059784, 56.943970
1649447321.182014, 6.500108, -12.007819, 2.071733, 0.294652, 0.250886, -1.514738, 77.831238, -10.038101, 56.996384
1649447321.215344, 3.850924, -11.426028, 3.050512, 0.183343, -0.474765, -0.919020, 78.693771, -10.531952, 57.454926
1649447321.248686, 1.020379, -10.070910, 2.610278, 0.122793, -0.441636, -0.724398, 79.886459, -10.562500, 57.352310
1649447321.282010, 1.507150, -10.208577, 2.646341, 0.085744, -0.485136, -0.665316, 80.474152, -10.343094, 57.385956
1649447321.315329, -0.659752, -9.977985, 1.941099, 0.122629, -0.470929, -0.722473, 81.561249, -10.848282, 57.787903
1649447321.348677, 0.655562, -8.667010, 2.175731, 0.141118, -0.581998, -0.922940, 83.200729, -11.210724, 58.021210
1649447321.382144, -0.911143, -7.958326, 2.257433, 0.181201, -0.126526, -1.084156, 83.879059, -10.844269, 58.018234
1649447321.415349, 1.219247, -8.689456, 3.561824, 0.257760, -0.394397, -1.133360, 84.756683, -10.636932, 58.198898
1649447321.448758, 0.341024, -11.323826, 1.335516, 0.191865, -0.804356, -1.380530, 86.517273, -10.839722, 57.962524
1649447321.482112, -2.695422, -12.316372, 0.371849, 0.051885, -0.171567, -1.966089, 87.954376, -10.181335, 57.846573
1649447321.515435, -0.449062, -13.962236, 2.793136, -0.094542, -0.391288, -2.407048, 89.827362, -10.057877, 57.656769
1649447321.548672, -3.343652, -14.100351, 4.934300, -0.261562, -1.239296, -2.987358, 92.436935, -10.040329, 57.257126
1649447321.581431, -5.226093, -13.895498, 3.134758, -0.206831, -1.929287, -3.359535, 97.156845, -8.678986, 55.785767
1649447321.615347, -5.682189, -20.133141, 2.237830, -0.413268, -2.521719, -3.868982, 101.124573, -6.846359, 54.179840
1649447321.648669, -4.286369, -14.931139, 2.556858, -0.743728, -1.818901, -2.989781, 105.784454, -4.145996, 51.390717
1649447321.681458, 0.691775, -8.070106, 1.519720, 0.102876, 0.050223, -1.717130, 108.470215, -0.079727, 49.812561
1649447321.715338, 12.251130, -11.005546, 4.523694, 0.882548, 1.145782, -0.363389, 110.798676, 5.816742, 49.800812
1649447321.748662, 0.815525, -4.609437, -0.484527, 0.072009, 0.826508, 1.844948, 115.085129, 7.830322, 49.243439
1649447321.781487, 8.076690, -4.905420, 0.193332, 0.660569, 2.267846, 3.171748, 119.352951, 7.859711, 50.001602
1649447321.815331, 5.230283, -3.966294, 1.351527, 0.037137, 1.536203, 4.415548, 123.991180, 3.517410, 53.686386
1649447321.848699, 2.468572, -4.943727, 0.495749, -0.216214, 1.649172, 5.313967, 126.860260, -3.788696, 56.728790
1649447321.881504, 5.444265, -6.254852, 1.984793, -0.405449, 0.965721, 5.869715, 127.241531, -14.153046, 59.903778
1649447321.914327, 3.784485, -7.119159, 1.199196, -0.422267, 0.549516, 6.184835, 121.964264, -29.758179, 62.987122
1649447321.948104, 3.162142, -9.078813, 1.115249, -0.267380, 0.899631, 6.186027, 113.061890, -40.191360, 65.719650
1649447321.982001, 4.682610, -11.827655, 3.220052, -0.403706, 0.234162, 5.635093, 102.256409, -48.168839, 67.022705
1649447322.015329, 2.731036, -14.364611, 2.684349, 0.251251, 0.251983, 4.639691, 87.696289, -53.929932, 69.062790
1649447322.048660, 4.428824, -12.549956, 2.947861, 0.604584, -0.367463, 2.733214, 79.994614, -56.209183, 72.706268
1649447322.081994, 2.423381, -10.141689, 1.838148, 0.407394, 0.477319, -1.300224, 77.140717, -58.494415, 75.454681
1649447322.114808, 5.963059, -11.152940, 1.127070, 0.222105, 1.928750, -3.474345, 77.809052, -62.171585, 77.137177
1649447322.148134, -17.197401, -18.260127, 4.161422, 0.005414, -0.691299, -3.001519, 80.953293, -65.787918, 79.518784
1649447322.182063, 29.607446, 2.220921, -1.648707, 0.909442, 2.453148, -3.246713, 81.746689, -66.800629, 79.098114
1649447322.215044, 4.893599, -11.703606, 7.146243, 1.091483, 0.508301, -2.674881, 84.000931, -66.598068, 81.210083
1649447322.248655, 7.077260, -8.430583, 3.312378, 0.814600, -0.249100, -2.164051, 89.594620, -66.207993, 82.564484
1649447322.281973, 4.958242, -10.742932, 2.027889, 0.427241, -0.276145, -1.210825, 91.941986, -65.738937, 83.618240
1649447322.314809, 2.843563, -10.808474, 3.353678, 0.266333, -0.566515, -1.087486, 94.928955, -64.934113, 84.094711
1649447322.348660, 1.520168, -10.942399, 3.538780, 0.128941, -0.488884, -0.683898, 97.532852, -63.952942, 83.971619
1649447322.381510, -0.125696, -11.167604, 2.332102, 0.119735, -0.656640, -0.808750, 99.964401, -63.301392, 83.879578
1649447322.415317, -0.502483, -9.999234, 2.019060, 0.116642, -0.620535, -0.948372, 102.099426, -62.168121, 83.116394
1649447322.448637, 0.577601, -8.270470, 2.110339, 0.097142, -0.386560, -1.035395, 104.750580, -60.992233, 82.916748
1649447322.481463, 1.264138, -7.758560, 2.738667, 0.161096, -0.351639, -1.137392, 106.740631, -59.628983, 82.843002
1649447322.515334, 2.375347, -10.421062, 2.796128, 0.196627, -1.019469, -1.152196, 109.289902, -58.454910, 82.051468
1649447322.548645, -1.150713, -10.565612, 0.760159, 0.132477, -0.883982, -1.510759, 112.566849, -57.239410, 81.636078
1649447322.581979, -2.193687, -12.603975, 1.554585, 0.069285, -0.677166, -2.029544, 117.031754, -54.568619, 80.036240
1649447322.615320, -3.671508, -13.160927, 2.670732, -0.176070, -0.764775, -2.902383, 120.958374, -52.060150, 78.945541
1649447322.648645, -5.106832, -13.505841, 3.415329, -0.181525, -1.336206, -3.634606, 125.592499, -48.682083, 76.042282
1649447322.682000, -4.914548, -20.268713, 3.884143, -0.189910, -1.974677, -4.020307, 132.390030, -41.622879, 71.741791
1649447322.714780, -6.395810, -18.760515, 6.186916, -0.684479, -2.783431, -3.550140, 136.425537, -35.465820, 65.737000
1649447322.748642, -0.097414, -9.780314, 3.317166, 0.311172, -0.616678, -2.332469, 136.648407, -29.217133, 62.412979
1649447322.781975, 10.323798, -11.988815, 4.757578, 0.900103, 0.267500, -0.612856, 132.655624, -21.999725, 60.731613
1649447322.814753, 2.610727, -7.226000, -0.473004, -0.154669, -0.544587, 0.990204, 129.632263, -19.037094, 58.165253
1649447322.848090, 5.223699, -4.016124, 0.361824, 0.583353, 2.440190, 3.014917, 124.672516, -18.031723, 59.006821
1649447322.881975, 4.770746, -3.824288, 1.577031, -0.024486, 2.446383, 4.157406, 118.970337, -19.361145, 60.359039
1649447322.915317, 3.874566, -4.076128, 2.086247, -0.367640, 2.259341, 5.116984, 110.388397, -22.767563, 60.933563
1649447322.948638, 5.591957, -5.406706, 3.160496, -0.718095, 1.262094, 5.776506, 102.630707, -26.298111, 60.140366
1649447322.981982, 4.731840, -6.626402, 1.486799, -0.411198, 1.494436, 5.935985, 93.529648, -28.144028, 58.527634
1649447323.015304, 4.822371, -9.215432, 2.621202, -0.401301, 1.337461, 5.891755, 80.536224, -25.596786, 56.094421
1649447323.047878, 5.050269, -10.869227, 3.150171, -0.210044, 0.131319, 5.328957, 72.470474, -20.565216, 53.772171
1649447323.081963, 3.999215, -12.377873, 2.938284, 0.246064, -0.153875, 4.449214, 68.179840, -13.468857, 52.143341
1649447323.115297, 4.785111, -12.889334, 3.532944, 0.421092, -1.137071, 2.995299, 68.527786, -5.073654, 50.857590
1649447323.148065, 1.823633, -11.413159, 1.443704, 0.351674, -0.512229, -0.438492, 71.419693, -1.471573, 50.208252
1649447323.181966, 4.351162, -10.626963, 0.453851, 0.243941, 0.956736, -2.671786, 75.213989, -0.224701, 48.801559
1649447323.215321, -0.385616, -12.815114, 10.374824, 0.481736, 0.748271, -2.649806, 80.441864, -0.702301, 47.952469
1649447323.248616, 17.626262, -6.263531, -10.139444, 0.655154, 2.462575, -3.353814, 83.597031, -3.741318, 48.901382
1649447323.281964, 6.484695, -9.295787, 4.873098, 1.501148, 1.222677, -2.602452, 85.615738, -4.355042, 49.867661
1649447323.315296, 6.507290, -9.721506, 9.194931, 0.605458, -1.157637, -1.992380, 88.039597, -4.785767, 50.942780
1649447323.348480, 0.386664, -10.179397, 4.280833, 0.505777, 0.553827, -1.548005, 89.801620, -5.060516, 51.622192
1649447323.381976, 3.723432, -9.860968, 3.444807, 0.189849, -0.393878, -1.043317, 90.901535, -5.511765, 52.020508
1649447323.415293, 1.587505, -10.701483, 3.665373, 0.011604, -0.446309, -0.708440, 91.949860, -5.640167, 51.930420
1649447323.448627, 0.792630, -10.848726, 3.215562, 0.109960, -0.758930, -0.777746, 93.271988, -6.542068, 52.753235
1649447323.481963, -0.604686, -9.888053, 2.697068, 0.149690, -0.758013, -0.844200, 94.531204, -7.237122, 52.717285
1649447323.515293, 0.917877, -8.537274, 3.342605, 0.103158, -0.761451, -0.910342, 95.906281, -7.527618, 52.927322
1649447323.548602, 1.540220, -7.773075, 3.315670, 0.123380, -0.742229, -0.973471, 97.850113, -8.127289, 52.963257
1649447323.581949, 0.139013, -8.982296, 3.904494, 0.195993, -0.992302, -1.006549, 99.500931, -8.284073, 53.228912
1649447323.614838, 0.493954, -10.511892, 2.477849, 0.152413, -1.164053, -1.255721, 101.245834, -8.442551, 53.277664
1649447323.648689, -3.648763, -11.215039, 0.588375, 0.146218, -0.507910, -1.936008, 103.434601, -8.688782, 52.910400
1649447323.681940, -2.145205, -13.431471, 2.717569, 0.041536, -0.583892, -2.719803, 106.861099, -8.588165, 53.410995
1649447323.715286, -5.002834, -13.463494, 3.544765, 0.038163, -1.170215, -3.355750, 110.705246, -7.967926, 53.017395
1649447323.748670, -3.655796, -15.895105, 2.055272, 0.161278, -2.143615, -3.754889, 115.303314, -7.104965, 52.860474
1649447323.781949, -6.492925, -22.778135, 3.356521, -0.178847, -3.241268, -3.892127, 123.654495, -5.689926, 49.596756
1649447323.815282, -2.475904, -12.856564, 2.905214, -0.065701, -2.019360, -2.762032, 128.782257, -5.203705, 46.993805
1649447323.848283, 6.688651, -8.686164, 2.663250, 0.786398, -1.002659, -0.925146, 132.286087, -5.906143, 46.436783
1649447323.881950, 7.983166, -9.065046, 1.087416, -0.188247, -0.824942, 0.462932, 133.499908, -9.853546, 47.511597
1649447323.915283, 2.396745, -1.997961, -0.505326, 0.210486, 1.738212, 2.588088, 130.950989, -14.734283, 50.449478
1649447323.948612, 6.425738, -5.223549, 0.251391, 0.000297, 2.084079, 3.906916, 125.437469, -19.532532, 55.163208
1649447323.981974, 3.909731, -3.783437, 0.912340, -0.389970, 1.728740, 4.968927, 118.571930, -24.385559, 58.214539
1649447324.014422, 5.684583, -5.492149, 1.224485, -0.628399, 0.990681, 5.891225, 108.844040, -29.396591, 59.818756
1649447324.048061, 4.027047, -6.646603, 0.761057, -0.634728, 1.172210, 6.352564, 101.601715, -32.440109, 60.617004
1649447324.081965, 3.408894, -8.594885, 0.945710, -0.491079, 1.418527, 6.467443, 93.736206, -35.120819, 60.625961
1649447324.115287, 6.253804, -11.737125, 3.688717, -0.582944, -0.576408, 5.909348, 83.628494, -38.349213, 60.932709
1649447324.148623, 1.837999, -11.514614, 2.276886, 0.245404, -0.600682, 5.012887, 77.097260, -39.076111, 61.977127
1649447324.181944, 2.287660, -12.646921, 2.028188, 0.566183, -0.152328, 3.498828, 71.070648, -39.183502, 63.933517
1649447324.215346, 1.777695, -10.609755, 2.171541, 0.336770, 0.239566, -0.096207, 67.648300, -40.304276, 65.869202
1649447324.248609, 5.977424, -10.106224, 1.825728, 0.173220, 0.400999, -2.506413, 68.661179, -43.044220, 66.195007
1649447324.281999, 2.465280, -13.311462, 3.979163, 0.260884, -0.102729, -3.325665, 72.928894, -46.192001, 67.381317
1649447324.315272, -26.450691, -35.346347, -6.484695, 0.245815, 3.009008, -4.397289, 78.712769, -48.964630, 66.447601
1649447324.348112, 14.658350, 2.801964, 2.823961, 1.304007, 0.929002, -3.130499, 82.058487, -49.594894, 67.299484
1649447324.381947, 6.321141, -13.989919, 5.991639, 0.639560, -0.504541, -2.383704, 85.985077, -49.413300, 69.108871
1649447324.415283, 8.457368, -9.604340, 0.380080, 0.620223, 0.003080, -2.028487, 90.016098, -49.227036, 69.971375
1649447324.448607, 3.819649, -9.418340, 3.935619, 0.230276, -0.244984, -1.064577, 92.822067, -48.704285, 70.669266
1649447324.481939, 3.407099, -10.286687, 3.319112, 0.053278, -0.546985, -0.835814, 94.893051, -48.403305, 70.920563
1649447324.515272, 1.395820, -11.021558, 3.090465, 0.006579, -0.601375, -0.480419, 96.511902, -48.237518, 70.411621
1649447324.548600, -1.607258, -10.724078, 2.031480, 0.033208, -0.557632, -0.624792, 98.623978, -47.481293, 70.231567
1649447324.581379, -0.277727, -8.948628, 1.878700, 0.056713, -0.316151, -0.779746, 100.114197, -47.149170, 70.342697
1649447324.615267, 0.378583, -7.914333, 2.353051, 0.069913, -0.185625, -0.945923, 101.661560, -46.728577, 69.973480
1649447324.648582, 1.771560, -9.361179, 2.889801, 0.164685, -0.682868, -0.976219, 104.260895, -46.009369, 70.149643
1649447324.681017, 1.072453, -10.946739, 1.851316, 0.101372, -0.906151, -1.188555, 106.858749, -45.227219, 69.947098
1649447324.715262, -3.315670, -10.997466, 1.764826, 0.028936, -0.498675, -1.761265, 109.585464, -44.215347, 69.684128
1649447324.748602, -2.026093, -12.933777, 3.395277, -0.067078, -0.646037, -2.205098, 113.139954, -43.267960, 69.178024
1649447324.781941, -4.529830, -13.327772, 3.254319, -0.348444, -1.034917, -3.001920, 118.987442, -40.904755, 67.846085
1649447324.815271, -6.118083, -14.545374, 3.351733, -0.319985, -1.786167, -3.609115, 124.552429, -38.061188, 65.689163
1649447324.847956, -4.543895, -20.774189, 3.274220, -0.349005, -2.494439, -3.925434, 130.660416, -34.299454, 62.605026
1649447324.881939, -1.853262, -16.109536, 3.235015, -0.658081, -3.193163, -2.967393, 138.108505, -29.205490, 54.802429
1649447324.914752, 0.655113, -7.520038, 2.488773, 0.497207, -1.670646, -1.520795, 140.012436, -25.953171, 52.210617
1649447324.948599, 11.602301, -10.540473, 3.863793, 0.946412, -1.060579, -0.056008, 139.528336, -24.504059, 51.240646
1649447324.981959, -0.965462, -3.233669, -1.109114, 0.628972, -0.009918, 1.798872, 136.344498, -25.767502, 49.206161
1649447325.015255, 4.892850, -5.015104, -0.398036, 1.193656, 1.828151, 3.337543, 130.401764, -28.156448, 52.086212
1649447325.048599, 3.389890, -4.129250, 0.370203, 0.693856, 1.828265, 4.225864, 122.858185, -31.070282, 54.483948
1649447325.081906, 3.306243, -5.667524, 0.957082, 0.477634, 2.094091, 5.057489, 110.271515, -34.511337, 56.519043
1649447325.114263, 3.232172, -6.859687, 0.693720, 0.276628, 2.023653, 5.464589, 100.641617, -35.689651, 56.719360
1649447325.148370, 3.510349, -9.015815, 0.325911, 0.185329, 2.499371, 5.598510, 90.389679, -35.674225, 56.050293
1649447325.181918, 4.239682, -10.013150, 1.427842, 0.039453, 2.349485, 5.591351, 80.418686, -34.192535, 54.427612
1649447325.214385, 5.542128, -13.111995, 3.638139, -0.284736, 0.702324, 5.084992, 69.022812, -30.484436, 51.742554
1649447325.248639, 2.500295, -13.114988, 1.994370, 0.231898, 0.686443, 4.181305, 62.242340, -26.709305, 51.163483
1649447325.281917, 4.050840, -13.195044, 2.530372, 0.622931, 0.306453, 2.607835, 57.379990, -22.312698, 50.949066
1649447325.315246, 3.054852, -10.969783, 2.365621, 0.450176, 0.358035, -0.989149, 55.193787, -18.580475, 51.552078
1649447325.347784, 1.309030, -13.388825, 2.230797, 0.320949, 1.790768, -3.461601, 55.641739, -18.855545, 50.629013
1649447325.381913, -16.460585, -24.681077, -4.289811, -0.181814, 0.041361, -4.275761, 58.366547, -19.620483, 50.302383
1649447325.415257, 18.779519, 4.405630, 0.806547, 1.038748, 2.070454, -2.928647, 61.392532, -19.444504, 47.806213
1649447325.448581, 5.751621, -15.644163, 5.714510, 1.089746, 0.588944, -2.654756, 63.239990, -18.650513, 47.853790
1649447325.481922, 8.541614, -8.012495, 1.455675, 0.757239, -0.136818, -2.076315, 65.312119, -18.489304, 48.658127
1649447325.515242, 4.289661, -10.162787, 2.612822, 0.436927, -0.423687, -1.167028, 66.500290, -18.218079, 48.976624
1649447325.548575, 1.966388, -10.157251, 3.367445, 0.265380, -0.469435, -0.930490, 68.445236, -17.940674, 49.908951
