SamplingTime, AccelerationX, AccelerationY, AccelerationZ, GyroX, GyroY, GyroZ, MagneticFieldX, MagneticFieldY, MagneticFieldZ
1649447711.300891, 0.258424, -9.651027, 1.755399, -0.001135, 0.009018, -0.004234, 104.883835, -38.787125, 42.310547
1649447711.334262, 0.027084, -9.626636, 1.781885, -0.001214, 0.062323, -0.010232, 104.815750, -38.815079, 42.364166
1649447711.367593, 0.093524, -9.595811, 1.811962, -0.004388, 0.035876, -0.011665, 104.662430, -38.882736, 42.456985
1649447711.400513, -0.047585, -9.647885, 1.803432, -0.005532, 0.054860, -0.026431, 104.748337, -38.653336, 42.356461
1649447711.433530, 0.027683, -9.677812, 1.860145, -0.000865, 0.065570, -0.033705, 104.378632, -38.649445, 42.524643
1649447711.467537, 0.295534, -9.689933, 1.813907, -0.006130, 0.020090, -0.016349, 104.622238, -38.543137, 42.681183
1649447711.500866, 0.116119, -9.642647, 1.856853, -0.008485, 0.009916, -0.012822, 104.707916, -38.694809, 42.681061
1649447711.534198, 0.117615, -9.639804, 1.826477, -0.009788, 0.002523, -0.014356, 104.642303, -38.767670, 42.679520
1649447711.567417, 0.033519, -9.674071, 1.807922, -0.009700, 0.001482, -0.018558, 104.749130, -38.719681, 42.708847
1649447711.600869, 0.173131, -9.651775, 1.725322, -0.009497, 0.016227, -0.013635, 104.549377, -38.690033, 42.466766
1649447711.633386, 0.158017, -9.619154, 1.798345, -0.007256, 0.002785, -0.003445, 104.827087, -38.691650, 42.434616
1649447711.667552, 0.172233, -9.627983, 1.802983, -0.011955, -0.004870, 0.001166, 104.768494, -38.739624, 42.537262
1649447711.700846, 0.117166, -9.665691, 1.709909, -0.008058, 0.005705, 0.005320, 104.748917, -38.878983, 42.594559
1649447711.734201, 0.101903, -9.637111, 1.774702, -0.005779, 0.015878, 0.003132, 104.851761, -38.646851, 42.799438
1649447711.767496, 0.064943, -9.638906, 1.794903, -0.009295, 0.014049, -0.006193, 104.684387, -38.641785, 42.662491
1649447711.800841, -0.027234, -9.613318, 1.822436, -0.009994, 0.024760, -0.025187, 104.719421, -38.615067, 42.773361
1649447711.834192, -0.093224, -9.667487, 1.791461, -0.007870, 0.065205, -0.043536, 104.852783, -38.702637, 42.550278
1649447711.867548, 0.156820, -9.654020, 1.783531, -0.009100, 0.039111, -0.046764, 104.785385, -38.681305, 42.570923
1649447711.900860, 0.004788, -9.631873, 1.731457, -0.005277, 0.059563, -0.066428, 105.065598, -38.537155, 42.488480
1649447711.934177, 0.040552, -9.569175, 1.736694, 0.003472, 0.089069, -0.088425, 105.001099, -38.460571, 42.567215
1649447711.967505, 0.359280, -9.793033, 1.771410, 0.012998, 0.143153, -0.063442, 105.009613, -38.520752, 42.458221
1649447712.000915, 0.568174, -9.597457, 1.761235, 0.025069, -0.005527, -0.024266, 105.173080, -38.528244, 42.488724
1649447712.034179, 0.035913, -9.647136, 1.757494, 0.052754, 0.033614, -0.015586, 105.100082, -38.468430, 43.059631
1649447712.067504, 0.338031, -9.701904, 1.814805, 0.041155, -0.002603, -0.022223, 105.015259, -38.359589, 43.263916
1649447712.100843, -0.081552, -9.653571, 1.851765, 0.049301, 0.039171, -0.063500, 104.954239, -38.122070, 43.241241
1649447712.134174, -0.334889, -9.777022, 1.947533, 0.034133, 0.103725, -0.128947, 105.253448, -38.290710, 43.641983
1649447712.167538, -0.180313, -9.426570, 1.626860, 0.098177, 0.041738, -0.118577, 105.210449, -38.281357, 43.275711
1649447712.200845, 1.410634, -10.600477, 1.389236, 0.108711, 0.143808, 0.091714, 105.240891, -38.102844, 43.775375
1649447712.234236, 1.998410, -9.218125, 1.735946, 0.157214, -0.220658, 0.250045, 105.067108, -38.181061, 43.546692
1649447712.267533, 0.498293, -9.288754, 1.961450, 0.150057, -0.098697, 0.249125, 104.876205, -38.232513, 43.865387
1649447712.300838, -0.071377, -9.395745, 2.422334, 0.098035, -0.097855, 0.174178, 104.779327, -38.048828, 43.777344
1649447712.334167, -0.099808, -9.444377, 2.443432, 0.037850, -0.281232, 0.100034, 104.732330, -38.182922, 43.588547
1649447712.367500, -1.285088, -10.070012, 2.163610, 0.067170, 0.072816, 0.070635, 104.624817, -38.158722, 43.777435
1649447712.400837, 0.936582, -9.427019, 2.177526, 0.048917, -0.093468, 0.129669, 104.505096, -38.314774, 43.817444
1649447712.434164, -0.465523, -9.560347, 2.155979, 0.027747, -0.028325, 0.094388, 104.568207, -38.188889, 43.609299
1649447712.467499, -0.133926, -9.472958, 2.192939, 0.008607, -0.013196, 0.035920, 104.395401, -37.988052, 44.010361
1649447712.500831, -0.673369, -9.742455, 2.329259, 0.016089, 0.045642, 0.014378, 104.479996, -37.982010, 43.684555
1649447712.534165, 0.588525, -9.611223, 2.134132, -0.001759, -0.021010, 0.048907, 104.301941, -37.868256, 43.500687
1649447712.567493, -0.119411, -9.536704, 2.190096, -0.011368, -0.060632, 0.053849, 104.357803, -38.016083, 43.608627
1649447712.600855, -0.325312, -9.565584, 2.173486, -0.019636, -0.001182, 0.016069, 104.352051, -38.328568, 43.537720
1649447712.634159, -0.006883, -9.590424, 2.056320, -0.018400, 0.007755, 0.023631, 104.518677, -38.339233, 43.536407
1649447712.667492, 0.087388, -9.618855, 2.057218, -0.012542, 0.027407, 0.047814, 104.544983, -38.139740, 43.401016
1649447712.700832, -0.042946, -9.613917, 2.233042, -0.025579, -0.021154, 0.060944, 104.371582, -38.237000, 43.329575
1649447712.733732, -0.330549, -9.609577, 2.136526, -0.047158, -0.026480, 0.027269, 104.282623, -38.238449, 43.350861
1649447712.767493, -0.260519, -9.611822, 2.137872, -0.047210, 0.003233, 0.000949, 104.356644, -38.430725, 43.207077
1649447712.800825, -0.187795, -9.603143, 2.088791, -0.041967, 0.022454, 0.006216, 104.260239, -38.549469, 43.223938
1649447712.833370, 0.116119, -9.624541, 1.977461, -0.031762, -0.035714, 0.045542, 104.206406, -38.410660, 43.057419
1649447712.867490, -0.237325, -9.570223, 2.063054, -0.032554, 0.002864, 0.042608, 104.048340, -38.500397, 42.826447
1649447712.900826, -0.114173, -9.652074, 2.002002, -0.034664, -0.023860, 0.040257, 103.963669, -38.233322, 42.940308
1649447712.933805, -0.290147, -9.536105, 1.991228, -0.014795, -0.028829, 0.039317, 103.923279, -38.548660, 42.877487
1649447712.966805, -0.109235, -9.597606, 1.920299, -0.014843, 0.003662, 0.036140, 103.725693, -38.226593, 42.727264
1649447713.000816, -0.131083, -9.556755, 1.984793, -0.009760, -0.018209, 0.038533, 103.767502, -38.485260, 43.182144
1649447713.034147, -0.346561, -9.513360, 2.034922, -0.016549, 0.019288, 0.013434, 103.743851, -38.539520, 42.642700
1649447713.067484, -0.305710, -9.639505, 2.038812, -0.019989, 0.038130, -0.004605, 103.723709, -38.291153, 42.608368
1649447713.100719, -0.350451, -9.597457, 2.094627, -0.033183, 0.063577, -0.028183, 103.782822, -38.293945, 42.716599
1649447713.134154, -0.464625, -9.616311, 2.071134, -0.040877, 0.046406, -0.081129, 103.730408, -38.351334, 42.546371
1649447713.167487, -0.798167, -9.466973, 2.064251, -0.042560, 0.125645, -0.169229, 103.869904, -38.421509, 42.783508
1649447713.200818, -0.349553, -9.537153, 1.907730, -0.045024, 0.168796, -0.200933, 104.198700, -38.483398, 42.958496
1649447713.234156, -0.074370, -9.565434, 1.893814, -0.030125, 0.182584, -0.207324, 104.300888, -38.496811, 43.082336
1649447713.267522, 0.422128, -9.583690, 1.753154, -0.005101, 0.146420, -0.174811, 104.213211, -38.212814, 43.345840
1649447713.300827, 0.158167, -9.626636, 1.809568, 0.015146, 0.117983, -0.144300, 104.480042, -38.310944, 43.483307
1649447713.334147, 0.268450, -9.659706, 1.824082, 0.030108, 0.099833, -0.121912, 104.748581, -38.096359, 43.379868
1649447713.367498, 0.215329, -9.573964, 1.838597, 0.048507, 0.104961, -0.095648, 104.931641, -38.167679, 43.540115
1649447713.400811, 0.093823, -9.550919, 1.894562, 0.059672, 0.150877, -0.118518, 105.108261, -38.089401, 43.614929
1649447713.434139, -0.169240, -9.545383, 2.028038, 0.060760, 0.171078, -0.142889, 105.031036, -37.917267, 43.904465
1649447713.467468, 0.100856, -9.577555, 1.939902, 0.071922, 0.205648, -0.190934, 105.292206, -38.004227, 44.010300
1649447713.500807, -0.047285, -9.508722, 2.019958, 0.078883, 0.206890, -0.210396, 105.509888, -37.935715, 44.345551
1649447713.534210, 0.060903, -9.551069, 1.975516, 0.086212, 0.286079, -0.251072, 105.947662, -37.505539, 44.668442
1649447713.567468, 0.315885, -9.515006, 1.893065, 0.117028, 0.327084, -0.258770, 105.886749, -37.375854, 45.132370
1649447713.600815, 0.615459, -9.478046, 1.850868, 0.147096, 0.209983, -0.252531, 106.022614, -37.202927, 45.366669
1649447713.634204, 0.227748, -9.597606, 2.023699, 0.181196, 0.299005, -0.254056, 106.587601, -36.886475, 45.815323
1649447713.667479, 1.400608, -9.384373, 2.258929, 0.174422, -0.020095, -0.198880, 106.510208, -36.684982, 46.138733
1649447713.700831, -0.055216, -9.716718, 2.263568, 0.215468, 0.445626, -0.210917, 106.757004, -36.693787, 46.395264
1649447713.734204, 1.308730, -9.428665, 2.856582, 0.171726, 0.240168, -0.189950, 107.125732, -36.414795, 46.770477
1649447713.767480, 0.774973, -9.611074, 2.561197, 0.143705, 0.036604, -0.168980, 107.378311, -36.204453, 47.298447
1649447713.800806, 0.749535, -9.593267, 2.849549, 0.085424, 0.100875, -0.226676, 107.327972, -36.095352, 47.133011
1649447713.834177, 0.463428, -9.458593, 2.784307, 0.051435, 0.003321, -0.264562, 107.613678, -35.751358, 47.436966
1649447713.867461, 0.491111, -9.378088, 2.958784, 0.015279, -0.059564, -0.323591, 108.125351, -35.591904, 47.784042
1649447713.900797, 1.015142, -9.370606, 2.359785, 0.005675, -0.107913, -0.345201, 108.599258, -35.416275, 47.747681
1649447713.934181, 1.163732, -9.242067, 2.526332, 0.017908, -0.214033, -0.328413, 109.550690, -35.566391, 47.699188
1649447713.967473, 0.902614, -9.373150, 2.370709, 0.029333, -0.114622, -0.334927, 109.851654, -35.186691, 47.679565
1649447714.000826, 1.225682, -9.208249, 2.591873, 0.012521, -0.104085, -0.350847, 110.505112, -35.351685, 47.896835
1649447714.034200, 1.162535, -9.319729, 2.452411, 0.020316, -0.066954, -0.371240, 110.827271, -35.144943, 47.819473
1649447714.067457, 1.605761, -9.371803, 2.542493, 0.026167, -0.040561, -0.377130, 111.198380, -34.890854, 47.787140
1649447714.100245, 1.773056, -9.225757, 2.648586, 0.006520, -0.065982, -0.374699, 111.835587, -34.719299, 47.994995
1649447714.134190, 1.246781, -9.349357, 2.685247, 0.008721, -0.072202, -0.460017, 112.492523, -34.339996, 48.093643
1649447714.167489, 1.609203, -9.364621, 2.412906, -0.003908, -0.120526, -0.527021, 113.211746, -34.376480, 48.306259
1649447714.200791, 1.841590, -9.304466, 2.391957, 0.007499, -0.263754, -0.571553, 113.894852, -33.910202, 48.489731
1649447714.234139, 2.209549, -9.283517, 2.313098, 0.038395, -0.231346, -0.585063, 115.091873, -33.555420, 48.534210
1649447714.267499, 2.420688, -9.140314, 2.574814, 0.024813, -0.222556, -0.622217, 115.846771, -33.454208, 48.382797
1649447714.300804, 2.617311, -9.309105, 2.712481, 0.018741, -0.341924, -0.637544, 116.734116, -32.865936, 48.676895
1649447714.334147, 2.657863, -9.395296, 2.773383, -0.040629, -0.553541, -0.687414, 118.021637, -32.225601, 47.744629
1649447714.367513, 1.970129, -9.431957, 3.231424, -0.141954, -0.637217, -0.874704, 119.241013, -31.651260, 47.698395
1649447714.400883, 0.755520, -10.267384, 3.677793, -0.253255, -0.745326, -1.234769, 120.765137, -31.001160, 47.190155
1649447714.434181, 0.772579, -14.063690, 1.937508, -0.399512, -1.055310, -1.840743, 122.605774, -29.870148, 46.722076
1649447714.467511, 0.167444, -15.209016, 1.004517, -0.358087, -1.096419, -2.263611, 125.566925, -27.547607, 45.908600
1649447714.500788, 0.105495, -15.408184, 1.245583, -0.260277, -0.984668, -2.660528, 128.306671, -24.641205, 45.812759
1649447714.534003, -0.354641, -13.669545, 2.203563, -0.219856, -0.827886, -2.730924, 130.683456, -21.676926, 45.772339
1649447714.567001, 5.216816, -7.999626, 2.353351, 0.525503, 0.156527, -2.142368, 133.216522, -17.789078, 48.119293
1649447714.600052, 5.890335, -7.627178, 2.810643, 0.246224, -1.422354, -0.514323, 133.857010, -16.343155, 49.134537
1649447714.634114, 0.269797, -5.199159, 1.317559, 0.215473, -1.584553, 0.861574, 134.025269, -17.434219, 48.387482
1649447714.667462, -0.542885, -4.399046, -0.906954, 0.250859, 0.111683, 2.313790, 132.156662, -21.429062, 48.996048
1649447714.700777, 2.210147, -7.442675, 0.524031, 0.174903, 0.906621, 3.269407, 128.272552, -25.587769, 51.522491
1649447714.734124, 3.657891, -8.931719, -0.242712, -0.009396, 0.879447, 3.707620, 123.050323, -30.160172, 53.777054
1649447714.767537, 5.470003, -10.302399, 0.836923, -0.132341, 0.177384, 4.305814, 114.319229, -35.662903, 56.517136
1649447714.800777, 4.170699, -10.353276, 0.341922, -0.075827, 0.190453, 4.369243, 106.653824, -38.622314, 57.525497
1649447714.834154, 2.317288, -10.132411, 0.450110, 0.101937, 1.061402, 4.147871, 98.261398, -39.845795, 59.666702
1649447714.867439, 5.957971, -10.425102, 0.701651, 0.168077, 0.370651, 3.840643, 90.111832, -38.859009, 61.215714
1649447714.900783, 3.504812, -10.193164, 0.976236, 0.202798, 0.952270, 2.639253, 81.797531, -36.580643, 62.998383
1649447714.934174, 2.136975, -9.986065, 0.535104, 0.317509, 2.015655, 1.743189, 76.453629, -34.148041, 63.632767
1649447714.967452, 6.149657, -9.967211, 2.231546, 0.166974, 1.618875, 0.583294, 73.166916, -32.389938, 63.357254
1649447715.000963, 5.001487, -9.737069, 4.250905, 0.066376, 1.305594, -1.258737, 72.087021, -31.087036, 62.917679
1649447715.034141, 5.251981, -9.395296, 4.983680, 0.451409, 0.987095, -2.454996, 73.691101, -30.928818, 62.817368
1649447715.067635, -3.253421, -13.693487, -3.209278, 0.211605, -0.453089, -1.093538, 75.964737, -30.494629, 63.223145
1649447715.100966, 3.301006, -17.422456, 0.567575, 0.396792, 1.494023, -2.368279, 77.922745, -30.118332, 63.060791
1649447715.134303, 3.020734, -3.364751, 2.071733, 0.854269, 0.491061, -1.599883, 79.071594, -29.660095, 63.522217
1649447715.167632, 5.141398, -11.713632, 3.053804, 0.572941, -1.586007, -1.009073, 81.832291, -29.138306, 64.705093
1649447715.200840, -0.684293, -9.921422, 2.746598, 0.496064, 0.045226, -1.036569, 83.777618, -28.424805, 65.702042
1649447715.234306, 2.543241, -9.593267, 2.226009, 0.416698, 0.141230, -0.926064, 85.141144, -27.987457, 66.210938
1649447715.267489, 3.460818, -9.690082, 2.428319, 0.340647, -0.506814, -0.666845, 86.425064, -27.689438, 66.795624
1649447715.300951, 1.591845, -9.449166, 1.783680, 0.319872, -0.330180, -0.654040, 87.672073, -27.252136, 67.016525
1649447715.334105, 1.259799, -9.375095, 2.765153, 0.284678, -0.251256, -0.697441, 89.244431, -26.884689, 67.149063
1649447715.367512, 1.634791, -9.374796, 2.289306, 0.280037, -0.471669, -0.740292, 90.493088, -26.411789, 67.658325
1649447715.400947, 1.862090, -9.625140, 2.668338, 0.223180, -0.375056, -0.881255, 91.787827, -25.861694, 68.006836
1649447715.433312, 1.680430, -9.247454, 2.513612, 0.217510, -0.427592, -0.980589, 93.347076, -25.285721, 68.079071
1649447715.467550, 2.230947, -9.507076, 2.816180, 0.150678, -0.427955, -1.051545, 95.681839, -24.770889, 67.922455
1649447715.500898, 2.003797, -9.482685, 2.527529, 0.123619, -0.218745, -1.164023, 97.151016, -24.143234, 67.840637
1649447715.534102, 1.933318, -9.760113, 2.639308, 0.034199, -0.096838, -1.526636, 98.791855, -23.337234, 67.434067
1649447715.567440, 1.900547, -11.120618, 3.176058, -0.091212, -0.067930, -1.789283, 101.490646, -22.337204, 67.104080
1649447715.600958, 4.004003, -12.523770, 2.375946, -0.107979, -0.536415, -1.903967, 103.923447, -21.328232, 65.588135
1649447715.634160, -0.737264, -15.153950, 1.295862, -0.135546, -1.452413, -2.441344, 108.054962, -20.257538, 64.240021
1649447715.667625, -2.808099, -17.599327, 1.447145, -0.153174, -1.655712, -2.824464, 114.436218, -18.174606, 61.051224
1649447715.700847, -2.931999, -19.104831, 1.404947, -0.416229, -1.023317, -3.052081, 119.065536, -15.377426, 57.830353
1649447715.734292, 3.684078, -8.470536, 4.636372, 0.082782, 0.669832, -2.788830, 122.070709, -12.056046, 56.433029
1649447715.767434, 6.379051, -5.050119, 1.732654, 0.447345, -0.469051, -0.840433, 125.259827, -9.377274, 54.833633
1649447715.800763, 0.472556, -6.023362, 4.296245, -0.294741, -1.971374, 1.676628, 127.064362, -10.448746, 51.551529
1649447715.834145, -0.406416, -3.746327, 0.520739, -0.316543, 0.699090, 2.452496, 127.578461, -13.580017, 49.073532
1649447715.867578, 2.825158, -6.674436, 2.356643, -0.596187, 1.365926, 3.646150, 124.948471, -19.944977, 49.007477
1649447715.900769, 6.118233, -8.581118, 0.350002, -0.784699, 0.853714, 4.315172, 120.688782, -26.109009, 48.554443
1649447715.934081, 6.097134, -8.092851, -0.076016, -0.413637, -0.015236, 4.892509, 114.726547, -31.846985, 47.391754
1649447715.967481, 4.021062, -10.289231, 2.123208, -0.138191, 0.150825, 5.325270, 106.827698, -35.925201, 46.869568
1649447716.000743, 4.565743, -10.056395, 0.263213, 0.245034, 1.009323, 5.248901, 94.460083, -38.112427, 46.918579
1649447716.034135, 7.546224, -12.185589, 1.967286, 0.479315, 0.327003, 5.305802, 85.379898, -36.687424, 47.164749
1649447716.066935, 5.548862, -10.564564, 1.928081, 0.819604, 0.664677, 3.608127, 78.360001, -33.518707, 47.813217
1649447716.100754, 7.889643, -12.606669, 2.622848, 0.709264, 1.248696, 1.647019, 72.983124, -29.237335, 48.392776
1649447716.134095, 10.708366, -9.613767, 3.392284, 0.285652, 0.454399, -0.558459, 73.136230, -28.088181, 47.933502
1649447716.167411, 7.790583, -9.234585, 5.789928, 0.554850, 0.822127, -2.945593, 75.480698, -27.820282, 47.857300
1649447716.200726, -7.799411, -17.782634, -4.377349, 0.175952, -0.712062, -1.449812, 79.138611, -27.650604, 48.555710
1649447716.233889, 4.341735, -16.762554, 0.383072, 0.106264, 2.925271, -3.610886, 82.431061, -27.736649, 47.987335
1649447716.267455, 10.788722, -11.209054, 4.910358, 0.592373, -0.638635, -2.124236, 84.497482, -26.825439, 48.610367
1649447716.299909, 4.661660, -10.402806, 2.045546, 0.382933, -1.958826, -1.165751, 87.370453, -26.619232, 49.582169
1649447716.333742, -1.531691, -8.957307, 2.188300, 0.330907, 0.219820, -1.164205, 89.836639, -26.188843, 49.889389
1649447716.367401, 4.716727, -10.331878, 2.230947, 0.310146, -0.967795, -0.730022, 91.093262, -25.717056, 50.259537
1649447716.400740, 0.249296, -10.197952, 3.151069, 0.228368, -0.711144, -0.738823, 92.367249, -25.478088, 50.538437
1649447716.434071, 0.388160, -9.458443, 2.260575, 0.186093, -0.342726, -0.899595, 94.105850, -25.003922, 50.320618
1649447716.467401, 1.327136, -9.134927, 3.100192, 0.153525, -0.391509, -0.995800, 95.657867, -24.420349, 50.771942
1649447716.500785, 2.022801, -9.640403, 2.739116, 0.080342, -0.509636, -1.169732, 97.155426, -23.971329, 50.557220
1649447716.534262, 1.575385, -9.638757, 2.223166, 0.062285, -0.372617, -1.307368, 99.615753, -22.937988, 50.663025
1649447716.567416, 2.804358, -9.668834, 2.089839, 0.031893, -0.424856, -1.419089, 101.453537, -22.331253, 50.649323
1649447716.600731, 0.287753, -10.438270, 2.420239, -0.044640, -0.260680, -1.854906, 103.424927, -21.319092, 50.585205
1649447716.633242, 0.898424, -12.011410, 2.667440, -0.082908, -0.277405, -2.241852, 105.851669, -20.122635, 50.479263
1649447716.667402, 1.014693, -13.805116, 2.436699, -0.218003, -0.952128, -2.634520, 110.319870, -17.964035, 49.748795
1649447716.700746, -2.809895, -19.949835, 1.641076, -0.234394, -2.220334, -3.015223, 114.468170, -15.754837, 48.744354
1649447716.734063, -4.105757, -19.038841, 0.764648, -0.424602, -1.907043, -3.224084, 119.402603, -12.776627, 47.072754
1649447716.767379, 0.459687, -16.404920, 3.794061, -0.194331, 0.490940, -2.899498, 124.322327, -8.806442, 47.490067
1649447716.800712, 6.631789, -5.665280, 2.343475, 0.060465, 1.015290, -1.688974, 126.663040, -6.110153, 49.920609
1649447716.834083, 5.691317, -4.583101, 3.241450, -0.005670, -0.583903, 0.691289, 127.787247, -6.118393, 51.433914
1649447716.867393, -1.176002, -4.483741, 1.006463, -0.382461, -1.649113, 2.648509, 128.381714, -10.509659, 50.018417
1649447716.900795, 0.856975, -3.344999, 1.718588, -0.142609, 0.906152, 3.239196, 125.818985, -14.902634, 51.625916
1649447716.934058, 4.200926, -7.670723, 1.030105, -0.430283, 1.053281, 4.503255, 121.622543, -19.508896, 53.129913
1649447716.967412, 6.672939, -6.210858, 0.354043, -0.226010, 0.458560, 5.260290, 113.932068, -25.104004, 54.295029
1649447717.000737, 4.346224, -8.339603, 0.680253, 0.044090, 0.083117, 5.779840, 107.643066, -28.152435, 54.298355
1649447717.034050, 7.990049, -9.899874, 2.795230, 0.331472, -0.327111, 6.205948, 100.796432, -29.639023, 54.093735
1649447717.067404, 6.488137, -9.423578, 0.430507, 0.955899, 0.004040, 5.747562, 94.533020, -30.086090, 54.865479
1649447717.100727, 7.107786, -14.638149, 0.929998, 1.117001, 0.956382, 4.229543, 87.769928, -29.182190, 56.260498
1649447717.134054, 11.201871, -11.829900, 3.440767, 0.473912, 1.325394, 0.559379, 84.875671, -28.603149, 56.531601
1649447717.167382, 9.989058, -9.726444, 2.900575, 0.143422, 1.370869, -2.026238, 85.385818, -28.641571, 57.001740
1649447717.200741, 7.082797, -9.424326, 4.797082, -0.008529, 1.051811, -3.142885, 88.884720, -28.965012, 57.460922
1649447717.234052, -7.367258, -24.157345, 3.017592, 0.699252, 2.684942, -4.386998, 91.396942, -28.719162, 58.402573
1649447717.267379, 10.695048, 2.844611, 0.004788, 0.991625, 1.943739, -2.530126, 93.284637, -28.175461, 59.081635
1649447717.300769, 13.273753, -14.188039, 1.731906, 0.635636, -1.514521, -1.794919, 97.128555, -26.888931, 60.732376
1649447717.334077, 2.104803, -10.081534, 2.913295, 0.370293, -1.666686, -1.232797, 100.223007, -26.132507, 60.831894
1649447717.367583, 2.526182, -10.631303, 2.729988, 0.286587, 0.318440, -1.016735, 101.304535, -25.550812, 61.284546
1649447717.400911, 4.786009, -9.122657, 1.923891, 0.314675, -0.934819, -0.714268, 102.804901, -24.756256, 61.412262
1649447717.434251, 0.765546, -10.444405, 2.724901, 0.211658, -0.731040, -0.755945, 104.948380, -24.201233, 61.699356
1649447717.467432, 1.693898, -9.003844, 2.528427, 0.153992, -0.472928, -0.913931, 106.464676, -23.379974, 61.373367
1649447717.500232, 1.567903, -9.422530, 2.741211, 0.134131, -0.524855, -1.032182, 107.803436, -22.606369, 61.815414
1649447717.533204, 1.752406, -9.084200, 2.847903, 0.088384, -0.409303, -1.165403, 110.121231, -21.777695, 61.581802
1649447717.567081, 2.556858, -9.667038, 2.226458, 0.086705, -0.536627, -1.353289, 111.782394, -20.838043, 61.946625
1649447717.600479, 0.837971, -10.186730, 1.788618, 0.042932, -0.423808, -1.691491, 113.552368, -19.720657, 62.039215
1649447717.633832, -0.352845, -11.893795, 3.050363, -0.080544, -0.333228, -2.255140, 117.072281, -17.761627, 61.821777
1649447717.667206, -0.914286, -14.792575, 2.902221, -0.241852, -0.808902, -2.937376, 120.042572, -15.557404, 62.332245
1649447717.700580, -2.285415, -18.265664, 1.368137, -0.187540, -2.128892, -3.246550, 123.996826, -12.654678, 61.368271
1649447717.733980, -4.027646, -20.581904, 0.180613, -0.360076, -2.367540, -3.354881, 129.234955, -9.366760, 59.554413
1649447717.767325, 1.052551, -12.943353, 4.040215, -0.038577, 0.910831, -2.873330, 133.046783, -4.714935, 60.966873
1649447717.800702, 7.991097, -5.909189, 2.267459, 0.355705, 1.213238, -1.556890, 133.564819, -2.025833, 64.039413
1649447717.834034, 5.136460, -5.728726, 4.997746, -0.093105, -0.884136, 1.221813, 133.780945, -2.166412, 65.428299
1649447717.867361, -2.078317, -4.277989, -0.085593, -0.351899, -1.952576, 2.799363, 136.184616, -8.559891, 63.063675
1649447717.900772, 3.401861, -3.469797, 0.779313, -0.109333, 0.131593, 4.061259, 134.606384, -14.427521, 63.496216
1649447717.934068, 2.210596, -6.879439, -0.256628, -0.101143, 0.815729, 4.683153, 131.192062, -21.419144, 64.817795
1649447717.967365, 4.055478, -7.499089, -0.048333, 0.064117, 1.230518, 5.231707, 123.160751, -31.210846, 68.211472
1649447718.000697, 4.483442, -10.427197, 0.739659, 0.081852, 0.990075, 5.653321, 115.113831, -37.984116, 70.705536
1649447718.034076, 7.050026, -11.255292, 1.437269, 0.306524, 0.857945, 5.911886, 105.186081, -43.942627, 73.111847
1649447718.067347, 8.323292, -9.961824, 2.140865, 0.237619, 0.030666, 5.706666, 90.116516, -49.675873, 76.452408
1649447718.100694, 6.192902, -15.800833, 2.048539, 0.824192, 1.885150, 3.161487, 78.184860, -50.752518, 79.887970
1649447718.134029, 13.207015, -10.902147, 4.215740, 0.444056, 0.699244, 0.474118, 69.854248, -50.857742, 81.746323
1649447718.167187, 8.382100, -10.028114, 3.909133, 0.191935, 1.133348, -1.947955, 67.265610, -51.928604, 82.998520
1649447718.200696, 0.930596, -12.516737, 0.911443, -0.075323, -1.789136, -2.028667, 69.995377, -54.694092, 82.886932
1649447718.234040, -2.366369, -24.981549, 2.406023, 0.068198, 3.206325, -4.837893, 72.413971, -54.930740, 82.766968
1649447718.267365, 9.631574, 3.473538, -0.615459, 0.934356, 1.993894, -2.741093, 72.783676, -55.242249, 82.470734
1649447718.300691, 13.816040, -16.029030, -0.465223, 0.478692, -1.667022, -1.560585, 78.947220, -54.825348, 83.655762
1649447718.334037, 0.536301, -7.845500, 2.453009, 0.352007, -0.063531, -1.126605, 82.321259, -54.647797, 84.015732
1649447718.367366, 4.628890, -11.513267, 2.527978, 0.293450, -0.086683, -0.862018, 83.353470, -54.162415, 84.442398
1649447718.400703, 2.991106, -8.855553, 2.514510, 0.215130, -1.021006, -0.646483, 86.608521, -53.680176, 85.015717
1649447718.434078, 0.343269, -9.471761, 2.271499, 0.153098, -0.354003, -0.853532, 88.697678, -53.223495, 84.943649
1649447718.467353, 1.951723, -9.367314, 2.362478, 0.129858, -0.467748, -0.958731, 90.647629, -52.569046, 84.647003
1649447718.500736, 1.414674, -9.109039, 2.638410, 0.082626, -0.398357, -1.074623, 92.724197, -52.174347, 84.847305
1649447718.534044, 2.598457, -8.707562, 2.188899, 0.115332, -0.357532, -1.187262, 95.576553, -51.417969, 84.137390
1649447718.567356, 3.129820, -8.993220, 2.309058, 0.102920, -0.392786, -1.256200, 97.580185, -50.527725, 83.960999
1649447718.600683, 1.551892, -10.287436, 1.908179, 0.093962, -0.550287, -1.515408, 100.268173, -49.741806, 83.265366
1649447718.634014, -0.527921, -12.390592, 2.462436, -0.159455, 0.013434, -2.296237, 104.117172, -48.454651, 82.831985
1649447718.667349, 0.217872, -13.797335, 3.048717, -0.157884, -0.435557, -2.713521, 107.454971, -46.700089, 81.639236
1649447718.700694, 0.520140, -15.976508, 2.613720, -0.042498, -1.625073, -2.895147, 112.079407, -44.270782, 79.931610
1649447718.734043, -1.429937, -20.767904, 0.830788, -0.242064, -2.796216, -2.823778, 120.516754, -39.499435, 75.011612
1649447718.767340, -0.878971, -15.771055, 3.731962, -0.223692, -0.204431, -2.633486, 123.175446, -35.954239, 72.566803
1649447718.800727, 2.835034, -6.178088, 2.246060, 0.458696, 1.016661, -2.380929, 123.115814, -31.543808, 72.782455
1649447718.834022, 6.415862, -7.764246, 2.285864, 0.346705, 0.329287, -0.154203, 121.242249, -28.644516, 72.910904
1649447718.867345, 0.782904, -4.582203, -0.263512, -0.144267, -2.098352, 2.563879, 119.012680, -28.595276, 70.300110
1649447718.900673, 1.872415, -2.902221, 0.636858, 0.091845, 0.224062, 3.127062, 115.145889, -29.343292, 70.297699
1649447718.934018, 1.588852, -6.770802, 0.807594, -0.048540, 0.850328, 3.966529, 109.314407, -30.352783, 71.586899
1649447718.967364, 3.064428, -6.758831, 0.206051, 0.132765, 1.891328, 4.725004, 99.268997, -30.868729, 73.570618
1649447719.000736, 5.071368, -9.011476, 0.918775, -0.251971, 1.504914, 5.135601, 91.585175, -30.501434, 74.643677
1649447719.034015, 5.593154, -10.370933, 0.850690, -0.402653, 1.741778, 5.495035, 83.136398, -30.039948, 75.176208
1649447719.067529, 8.614786, -9.655067, 4.686500, -0.162685, 0.006448, 6.122508, 72.343491, -27.206329, 75.779022
1649447719.100414, 4.926369, -12.449998, 2.582595, 0.508374, 0.414752, 5.089031, 66.566650, -22.858780, 76.794098
1649447719.133410, 8.060080, -14.340819, 1.782483, 1.245943, 1.742072, 2.702724, 61.108017, -17.473862, 76.856735
1649447719.166510, 12.906393, -11.137976, 5.612308, 0.536458, -0.461348, 0.087369, 60.468994, -14.131363, 77.043015
1649447719.199702, 5.208586, -10.336816, 3.887735, 0.142950, 1.944078, -3.034120, 61.150879, -14.432526, 75.844543
1649447719.233083, -5.284602, -16.891691, -6.086958, -0.287632, -0.881596, -1.806850, 63.427521, -15.954651, 75.238342
1649447719.266460, -1.514632, -20.228610, 3.069965, 0.756670, 3.699807, -4.507217, 63.166672, -16.562592, 72.723511
1649447719.299844, 10.455928, -3.675997, 6.353463, 0.433402, 0.625577, -2.516680, 63.100571, -17.393646, 70.200226
1649447719.333266, 10.569951, -12.576891, -0.500687, 0.439081, -2.214436, -1.188194, 66.839218, -17.632599, 71.521545
1649447719.366578, -0.673220, -8.862586, 2.123807, 0.409585, -0.211587, -1.097347, 69.128036, -17.458679, 72.630997
1649447719.399958, 5.561132, -10.018986, 3.034202, 0.326077, -0.402062, -0.793269, 69.911850, -17.479233, 72.237061
1649447719.433339, 1.711405, -9.624391, 3.026121, 0.279527, -1.164408, -0.627533, 72.161133, -17.200943, 73.334106
1649447719.466726, -0.695067, -9.149442, 2.479645, 0.227106, -0.328041, -0.825728, 73.622971, -17.069321, 73.425781
1649447719.500084, 1.264737, -9.470115, 2.527080, 0.151888, -0.390756, -1.002322, 75.280304, -16.902466, 73.870743
1649447719.533477, 1.292121, -9.198224, 2.757821, 0.132967, -0.234055, -1.168128, 76.761047, -16.892212, 73.622070
1649447719.566844, 2.289306, -9.564237, 2.249352, 0.113173, -0.356401, -1.286626, 78.378296, -16.852417, 73.893723
1649447719.599738, 2.016965, -9.559299, 2.111985, 0.111309, -0.495861, -1.437947, 80.124344, -16.599716, 73.824890
1649447719.633584, -0.051326, -10.265289, 2.670582, 0.027887, -0.377376, -1.992426, 82.980698, -16.580170, 73.573044
1649447719.666983, 0.534954, -12.573000, 3.108572, -0.134090, -0.193033, -2.448521, 84.995544, -16.274734, 73.011154
1649447719.700385, 0.816273, -14.765640, 2.751087, -0.161937, -0.687065, -2.823218, 88.053635, -15.682358, 72.585846
1649447719.733706, -1.857900, -18.335545, 1.705569, -0.061083, -1.973671, -3.162297, 93.928741, -13.607361, 71.347809
1649447719.767086, -2.482787, -20.354305, -0.241964, -0.129951, -3.209239, -2.954444, 100.054703, -11.449097, 69.687134
1649447719.800519, 1.075146, -16.364368, 3.017442, -0.094988, -0.408508, -3.007541, 103.632202, -7.881409, 68.073990
1649447719.833842, 5.975478, -5.653758, 3.302352, 0.601582, 0.395223, -1.958673, 105.279510, -2.639755, 67.760818
1649447719.867221, 5.105635, -5.433641, 2.344971, 0.727595, -0.622420, 0.419038, 107.103424, -0.058258, 67.074219
1649447719.900591, 0.294636, -4.388572, -1.016638, 0.233803, -2.361103, 2.845679, 110.280533, 0.210663, 65.129333
1649447719.933980, 2.909554, -2.271499, -0.514005, 0.604431, 0.220085, 3.885232, 111.396515, -0.817230, 64.076752
1649447719.967315, 2.346617, -5.562928, -0.621146, 0.341936, 0.572783, 4.809053, 110.879883, -4.482635, 63.033752
1649447720.000649, 2.120215, -5.903952, -1.290924, 0.358468, 1.776847, 5.341658, 107.489532, -8.131088, 63.576965
1649447720.033233, 4.503344, -9.684995, -0.099659, -0.054011, 1.479054, 6.111911, 101.768829, -11.330765, 63.584412
1649447720.067315, 6.233304, -11.566388, 2.116474, -0.141882, 1.144116, 6.630333, 93.133240, -13.228561, 63.137909
1649447720.100647, 7.486070, -13.093590, 2.343175, 0.093655, 0.930061, 6.473648, 87.451584, -11.653564, 62.249344
1649447720.133960, 5.168184, -15.390377, 1.693000, 1.146005, 2.060915, 3.748447, 83.596039, -8.456467, 61.697495
1649447720.167315, 14.523826, -11.077073, 6.218490, 0.594802, -0.539791, 0.680883, 84.037018, -5.005875, 61.255905
1649447720.200650, 7.974936, -10.489596, 4.970063, 0.088207, 0.821784, -2.165608, 86.467178, -4.271957, 60.823700
1649447720.233992, 7.425317, -11.115081, 5.030966, -0.207214, -0.437170, -3.038373, 89.252167, -3.990280, 60.918640
1649447720.267295, -5.126285, -11.339388, -0.207098, 0.685357, 2.682117, -3.148344, 93.152664, -3.944534, 60.719940
1649447720.300645, 11.104008, -7.489661, 4.555118, 0.623146, 4.057338, -3.060781, 92.740936, -3.576447, 61.975494
1649447720.333976, 13.286772, -9.072678, 4.554669, 0.441358, -0.998436, -2.033076, 94.523499, -2.904205, 62.103485
1649447720.367320, 2.598906, -10.222194, 0.239271, 0.462141, -1.994161, -1.031978, 97.859009, -2.483536, 62.190735
1649447720.400649, -2.106449, -10.223690, 1.516577, 0.403111, 0.713880, -1.089254, 99.808563, -1.705460, 62.196442
1649447720.433975, 5.719598, -9.248801, 3.095403, 0.337338, -0.333576, -0.707359, 100.478745, -1.363113, 62.776505
1649447720.467310, 0.211139, -9.664494, 2.529773, 0.309303, -0.888435, -0.643748, 101.903458, -0.967880, 62.171310
1649447720.500276, -0.170587, -9.330653, 2.870199, 0.249994, -0.186965, -0.838798, 103.365540, -0.509277, 62.280746
1649447720.533086, 1.910872, -9.124153, 2.476203, 0.210421, -0.560857, -0.933182, 104.567200, 0.106216, 62.254562
1649447720.567288, 1.046715, -9.379435, 2.794033, 0.124740, -0.391264, -1.092967, 106.019363, 0.172363, 62.631607
1649447720.600708, 2.245761, -9.658808, 2.416498, 0.085929, -0.441572, -1.209695, 107.802750, 0.988541, 62.090729
1649447720.634049, 2.175731, -9.828048, 2.520945, 0.049396, -0.431895, -1.316990, 109.307541, 1.392303, 62.102905
1649447720.667427, 1.388936, -9.928754, 2.452411, 0.037779, -0.504184, -1.547805, 110.736832, 2.182175, 62.326096
1649447720.700653, 0.305560, -12.460922, 2.901772, -0.148939, -0.498652, -2.179457, 112.975861, 2.602432, 61.786972
1649447720.733604, -0.222511, -14.126388, 3.133112, -0.313454, -0.788626, -2.730367, 116.582306, 3.288773, 61.756180
1649447720.766572, -3.035548, -17.100436, 2.566734, -0.279004, -1.409067, -3.230970, 120.519348, 3.883896, 61.367340
1649447720.799641, -3.381211, -19.431490, 0.360178, -0.230483, -2.263504, -3.288786, 125.448410, 4.968689, 60.405930
1649447720.833049, 0.921169, -16.026936, 3.004125, -0.107867, 0.064234, -3.350363, 130.920807, 6.039551, 59.819244
1649447720.866409, 6.100575, -8.094347, 3.475333, 0.634917, 0.431013, -2.548731, 132.937714, 6.591919, 61.958755
1649447720.899750, 4.594772, -5.432593, 2.037615, 0.588045, -0.539519, 0.370012, 134.240326, 4.734100, 62.407974
1649447720.933099, 0.190638, -4.179229, 0.187047, -0.081905, -2.390059, 2.904377, 136.015625, -2.609009, 59.900726
1649447720.966523, -0.370652, -1.796399, -0.380528, 0.324080, 0.400703, 3.215488, 134.231918, -8.598190, 59.942902
1649447720.999911, 2.248155, -5.460875, 0.684143, 0.066027, 1.096334, 4.240331, 129.563126, -14.893478, 61.527832
1649447721.033284, 4.534319, -6.898144, -0.385317, -0.033958, 1.786292, 5.121970, 122.645767, -20.824600, 63.022507
1649447721.066656, 4.342483, -8.754099, 0.133926, -0.200602, 1.082535, 5.640500, 113.082901, -26.788849, 62.919357
1649447721.100015, 4.769998, -10.947337, 1.668310, -0.237619, 0.941856, 6.146820, 105.244644, -30.506012, 61.675598
1649447721.133440, 7.170484, -13.760075, 2.730437, 0.039875, 1.085426, 6.288036, 97.036285, -33.327835, 61.018265
1649447721.166610, 5.917569, -12.637494, 3.223942, 0.465577, 1.381370, 4.597857, 86.527496, -35.132111, 59.702545
1649447721.199994, 12.084434, -12.509255, 3.307889, 1.026935, 0.610829, 2.570758, 81.371857, -35.073410, 60.152206
1649447721.233459, 8.423250, -9.658509, 4.997896, 0.354648, 0.051095, -0.977123, 81.354843, -35.708557, 60.576035
1649447721.266830, 7.540987, -9.833285, 2.798672, 0.176157, 1.039871, -3.121547, 84.376038, -37.994812, 60.107925
1649447721.300211, -8.490138, -17.712005, -5.693412, -0.456873, -1.569267, -1.519678, 88.306030, -39.427475, 59.093353
1649447721.333505, 2.619406, -20.442292, 3.204340, 0.125480, 4.493855, -4.197670, 90.018570, -40.398270, 59.651611
1649447721.367000, 11.981483, 0.394295, 5.658396, 0.541564, 0.964480, -2.394044, 90.744690, -40.751663, 60.178329
1649447721.400335, 12.150424, -14.235325, 0.055216, 0.479508, -2.676673, -1.177328, 96.371857, -40.855011, 60.571228
1649447721.433672, -2.477699, -8.788067, 2.370858, 0.508013, 0.614038, -1.179066, 98.965256, -40.273392, 61.340698
1649447721.466946, 5.672313, -10.744429, 2.267758, 0.429567, 0.153301, -0.867178, 99.268646, -39.805801, 62.207916
1649447721.500306, 2.729540, -8.998308, 2.247108, 0.466041, -1.259753, -0.532533, 101.772095, -39.244080, 62.748291
1649447721.533705, -0.402376, -9.487024, 3.295170, 0.311263, -0.410301, -0.702742, 103.714951, -38.826035, 62.732437
1649447721.567077, 1.996615, -9.122657, 3.008015, 0.249377, -0.718717, -0.783275, 104.989822, -38.312561, 63.383987
1649447721.600427, 0.221164, -9.575161, 2.487875, 0.206725, -0.670539, -0.986721, 107.667496, -37.946854, 62.932739
1649447721.633765, 0.552612, -9.900922, 3.189526, 0.120436, -0.496925, -1.200414, 109.810486, -37.482590, 63.171280
1649447721.667099, 2.013224, -9.731532, 2.619556, 0.021662, -0.530006, -1.435350, 111.998520, -37.081726, 62.872955
1649447721.700411, 0.703895, -9.933692, 2.606388, 0.009854, -0.389182, -1.715105, 115.319183, -36.483246, 62.745773
1649447721.733761, 0.722899, -11.473613, 3.081038, -0.081428, -0.342895, -2.128861, 118.288071, -35.480682, 62.254776
1649447721.767075, 1.554585, -13.765762, 2.474707, -0.205233, -0.547463, -2.631155, 121.539993, -34.580948, 61.989746
1649447721.800467, -0.497695, -15.468189, 1.609951, -0.197822, -1.554770, -2.916759, 125.431519, -33.372421, 60.856552
1649447721.833769, -3.709067, -20.001460, 0.433201, -0.180684, -2.813454, -3.056915, 132.408920, -31.604218, 57.288284
1649447721.867086, -1.024569, -17.355867, 3.214365, -0.300095, -0.457624, -3.361993, 136.291138, -30.133041, 54.425247
1649447721.900312, 3.302352, -10.547655, 5.197213, 0.284808, 0.964229, -3.059084, 137.454086, -28.400589, 55.518738
1649447721.933459, 5.447108, -8.920646, 0.840963, 0.395994, 0.155141, -0.861714, 135.944397, -28.371719, 56.619308
1649447721.966791, 0.187945, -5.161600, 0.937779, -0.217987, -2.225467, 2.475804, 132.091736, -31.306503, 54.435669
1649447722.000124, 0.717213, -2.774730, 0.343418, -0.176489, 0.235151, 3.105026, 125.947144, -35.457077, 52.599777
1649447722.033444, 3.175759, -4.651335, 1.532588, -0.312754, 1.038100, 4.248429, 114.012909, -40.064545, 52.535080
1649447722.066798, 3.536086, -6.424391, 0.248548, -0.517788, 1.365053, 4.895996, 103.338806, -41.776337, 51.821609
1649447722.100116, 4.946421, -7.649774, 0.063895, -0.316231, 1.334358, 5.669123, 92.163666, -41.286758, 50.689590
1649447722.133472, 3.907487, -9.378986, 1.168221, -0.289929, 1.475463, 6.142200, 81.106552, -37.739944, 48.872101
1649447722.166371, 6.578069, -11.673080, 2.892495, -0.240131, 1.443046, 6.493308, 69.367813, -30.037735, 45.707413
1649447722.199702, 6.831854, -13.201329, 3.734506, 0.354156, 0.592060, 5.429814, 63.773926, -22.562225, 43.816925
1649447722.233033, 10.093805, -13.183671, 3.941604, 1.290576, 1.129549, 2.768283, 61.654007, -16.456665, 42.884689
1649447722.266362, 13.450924, -10.741586, 6.020220, 0.564762, -1.151508, -0.085174, 64.127502, -13.760773, 43.245743
1649447722.299693, 5.275324, -11.447726, 2.417395, -0.169016, 0.525139, -3.225161, 67.467514, -14.788147, 42.970367
1649447722.333046, -11.602900, -16.224308, -5.682638, 0.012273, 0.305447, -2.143365, 70.940445, -15.821716, 42.320679
1649447722.366348, 1.316661, -18.749442, 3.687220, 0.731567, 5.148770, -4.809726, 75.188492, -18.234039, 40.389145
1649447722.399720, 11.024251, 1.932270, 5.385607, 0.295078, -0.383555, -2.366456, 77.835678, -18.705841, 39.974335
1649447722.433921, 9.490466, -12.480674, -0.899322, 0.472468, -2.856944, -1.022778, 80.200836, -18.805771, 40.963608
1649447722.467240, -1.934665, -8.663868, 2.594716, 0.400532, -0.296533, -0.979139, 82.064285, -19.140274, 41.656204
1649447722.500571, 5.050718, -10.597335, 3.201197, 0.293080, -0.262256, -0.731550, 83.037796, -19.066040, 41.697754
1649447722.533921, 0.958578, -8.887725, 2.434005, 0.298328, -0.982962, -0.682503, 84.136749, -19.023270, 42.307953
1649447722.567250, -0.596007, -9.760562, 2.753781, 0.220962, -0.399333, -0.860449, 84.856476, -18.969086, 42.752289
1649447722.599641, 1.233163, -8.898200, 2.724153, 0.148184, -0.280304, -1.009042, 86.670563, -19.256104, 42.763474
1649447722.633916, 0.993893, -9.554660, 2.449418, 0.102625, -0.303218, -1.231140, 88.106400, -19.043716, 43.146240
1649447722.667258, 2.230049, -9.695020, 1.943194, 0.089111, -0.386020, -1.342470, 89.671463, -18.936996, 42.781418
1649447722.699732, 1.865831, -9.961824, 2.598756, 0.060330, -0.503946, -1.496744, 92.333649, -19.381058, 43.175339
1649447722.733070, 0.522535, -10.861445, 2.096722, -0.072579, -0.325976, -1.964025, 94.275513, -18.905380, 43.159088
1649447722.766412, 0.212934, -12.407052, 3.134309, -0.302530, -0.161473, -2.471518, 96.677124, -18.344757, 42.250534
1649447722.799751, -0.037260, -14.834025, 3.404106, -0.320217, -0.848695, -2.924980, 99.527832, -18.022644, 41.819839
1649447722.833049, -2.246360, -18.593669, 0.710180, -0.165796, -2.079612, -3.270580, 105.210968, -16.822418, 40.556305
1649447722.866419, -2.360832, -20.039169, 0.615908, -0.376759, -2.394580, -3.046688, 109.159286, -15.266937, 38.890701
1649447722.899726, 0.976535, -15.688904, 3.292476, -0.022256, 0.697270, -3.228942, 112.357468, -13.618011, 37.496994
1649447722.933897, 7.108085, -6.522703, 2.039710, 0.374080, -0.439235, -1.138646, 115.544128, -11.356934, 37.983551
1649447722.967243, 3.897012, -4.511125, 3.159897, 0.548301, -1.205976, 0.987169, 116.067535, -11.142197, 37.601303
1649447723.000641, -0.925808, -3.955820, -1.157746, 0.283736, -1.927129, 2.931609, 115.276001, -13.294495, 36.026779
1649447723.033906, 2.770989, -1.879149, -0.177321, 0.605671, 0.641139, 3.454163, 112.723068, -16.729935, 36.526840
1649447723.067239, 2.462885, -6.389825, 0.151433, 0.200049, 0.723355, 4.748958, 109.001938, -19.033203, 37.248917
1649447723.100569, 3.006668, -6.561609, -0.931195, 0.345207, 1.556757, 5.217639, 104.192673, -20.955780, 37.844589
1649447723.133902, 4.234744, -8.344691, 0.545579, 0.189400, 0.883006, 5.789806, 97.045807, -23.275391, 38.733200
1649447723.166310, 5.055806, -11.639860, 1.789067, 0.220514, 1.048868, 6.240803, 91.519379, -23.127213, 39.038452
1649447723.199653, 7.865252, -13.910461, 2.650980, 0.205480, 0.829644, 6.263142, 86.405472, -22.210754, 38.952179
1649447723.233028, 3.741988, -13.581558, 2.735525, 0.822790, 1.150024, 4.693690, 82.358719, -20.945068, 38.948868
1649447723.266305, 12.842947, -11.628488, 4.120571, 0.799664, 0.130443, 1.187588, 79.712219, -21.210083, 39.408508
1649447723.299666, 7.806145, -11.236886, 5.190928, 0.107883, 0.808349, -1.557913, 80.799805, -21.781052, 40.103119
1649447723.333005, 6.465093, -9.692776, 3.377470, 0.140607, 1.372706, -3.272580, 83.104828, -22.617126, 39.977951
1649447723.366305, -9.364621, -17.429938, -5.635951, -0.384470, -0.561899, -2.368126, 86.551193, -25.004456, 39.622955
1649447723.399635, 2.579154, -13.987974, 2.345270, 0.667410, 4.348292, -3.971620, 89.454575, -25.245148, 41.145187
1649447723.433243, 10.914866, -4.029890, 6.113744, 0.463412, 1.243096, -2.527317, 91.404907, -24.799042, 41.824097
1649447723.466566, 13.179482, -12.439973, 0.598850, 0.408775, -3.028232, -1.137420, 94.301529, -25.520218, 41.689941
1649447723.499908, -2.238279, -9.505280, 2.836979, 0.366632, -0.286615, -0.946307, 96.212631, -25.153168, 42.141342
1649447723.533239, 2.755726, -10.390536, 2.580351, 0.292657, 0.351074, -0.820062, 96.813461, -24.165817, 42.845276
1649447723.566589, 3.602974, -9.190293, 2.239776, 0.303060, -0.990596, -0.478373, 97.944092, -23.537247, 43.068420
1649447723.599909, -0.367211, -9.045892, 2.825008, 0.244113, -0.746040, -0.583090, 98.749756, -24.532745, 42.729889
1649447723.633242, 0.234482, -9.105149, 2.834435, 0.167819, -0.378231, -0.799402, 99.935257, -23.554718, 43.535156
1649447723.667227, 0.527024, -9.098116, 2.852392, 0.149319, -0.408162, -0.918799, 101.016891, -23.022644, 43.445770
1649447723.700551, 1.331924, -9.904363, 2.348712, 0.074626, -0.336564, -1.136974, 102.576874, -23.748901, 43.322037
1649447723.733886, 1.912817, -9.692327, 2.479645, 0.048673, -0.235791, -1.271928, 103.906631, -22.959244, 43.617996
1649447723.767224, 0.907103, -9.668385, 2.531719, -0.017169, -0.393977, -1.524865, 105.590225, -21.806931, 43.580338
1649447723.800554, 0.094421, -12.260557, 2.955343, -0.218584, -0.206544, -2.135473, 108.023895, -22.155487, 43.540436
1649447723.833900, 1.391031, -14.336330, 3.475333, -0.356536, -0.820958, -2.562341, 110.287186, -20.948547, 43.124634
1649447723.867219, -2.028936, -15.285332, 2.286762, -0.389676, -1.485547, -3.154334, 113.390671, -18.933655, 42.962036
1649447723.900545, -5.004929, -19.496583, -0.361225, -0.150731, -2.428319, -3.509553, 118.277313, -17.408600, 41.317444
1649447723.933610, -0.849493, -17.142783, 1.974319, -0.226599, -1.385211, -3.473188, 121.523102, -15.544403, 40.854340
1649447723.967218, 3.927688, -13.835493, 3.386748, 0.296567, 0.406640, -2.896756, 123.860168, -12.936111, 43.040222
1649447724.000572, 6.296750, -5.639093, 3.202843, 0.358013, 0.306013, -1.538332, 124.755615, -11.220825, 45.482452
1649447724.033882, 2.227805, -5.124489, 4.027945, -0.121831, -1.375779, 1.835631, 123.738876, -14.115021, 46.839066
1649447724.067218, -1.941398, -2.725799, -1.184980, -0.160553, -0.219742, 2.749858, 121.893738, -17.615784, 47.495071
1649447724.099566, 4.608389, -2.736872, 0.290447, -0.065195, 0.939605, 3.985907, 117.970123, -21.308228, 50.466019
1649447724.132945, 3.650409, -5.626224, -0.960225, -0.310572, 0.600936, 5.037478, 109.621613, -27.405746, 51.248978
1649447724.166303, 3.691260, -6.147262, -0.349853, -0.185057, 0.782396, 5.713421, 102.395172, -30.214462, 53.378128
1649447724.199706, 3.386000, -9.210943, -0.625036, 0.073704, 1.081227, 6.048104, 94.693176, -32.008423, 55.682999
1649447724.233041, 11.150695, -12.279711, 2.917035, 0.141241, 0.101463, 6.501798, 82.360611, -31.990143, 56.665787
1649447724.266437, 6.923283, -10.732159, 2.955193, 0.630186, -0.264957, 5.786391, 75.215027, -29.678802, 59.057922
1649447724.300532, 5.773917, -15.076138, 1.398513, 1.188648, 1.519436, 3.336812, 69.980820, -27.234070, 61.366547
1649447724.333167, 12.215217, -12.524219, 5.046977, 0.547367, 0.813707, 0.121465, 67.482346, -26.637619, 62.797729
1649447724.366561, 7.892186, -10.036044, 4.046051, 0.187171, 1.899910, -3.226952, 68.312408, -27.905716, 61.098633
1649447724.399887, -8.353220, -16.113127, -5.589413, -0.398103, -1.052508, -1.615760, 71.618027, -29.888901, 62.479568
1649447724.433219, -1.386692, -14.836718, 2.303671, 1.008541, 2.499667, -3.702935, 73.461975, -31.519043, 63.093399
1649447724.466551, 8.681674, -0.709432, 5.938069, 0.562196, 1.215173, -2.521583, 74.688477, -32.506943, 60.679855
1649447724.499885, 13.565247, -12.686875, 0.517596, 0.477470, -2.113493, -1.221773, 78.120422, -32.712708, 62.743088
1649447724.533287, 0.533757, -9.307010, 1.784428, 0.464167, -1.053292, -1.030348, 81.476074, -32.788605, 64.659012
1649447724.566544, 3.610007, -11.017966, 2.520197, 0.375743, -0.160434, -0.735018, 82.415359, -32.471695, 63.407837
1649447724.599884, 3.230227, -9.344270, 2.285415, 0.354821, -1.188035, -0.507466, 84.413254, -32.006027, 64.313705
1649447724.633221, -0.637007, -9.618556, 2.855684, 0.277394, -0.734426, -0.609405, 86.532089, -32.078888, 66.023239
1649447724.666517, 1.685069, -8.974515, 2.523040, 0.218099, -0.508349, -0.816768, 88.083603, -32.262589, 66.490845
1649447724.699889, 1.267131, -9.210494, 2.999635, 0.146995, -0.649526, -0.933937, 89.702896, -31.583618, 65.369949
1649447724.733222, 0.953042, -8.737340, 2.495806, 0.136788, -0.614925, -1.093850, 92.065582, -31.589722, 66.411575
1649447724.766528, 3.081637, -9.325715, 2.089390, 0.094453, -0.538679, -1.202493, 94.457474, -31.507919, 66.994507
1649447724.799874, 2.353949, -9.433603, 2.462586, 0.071890, -0.554884, -1.300211, 96.546829, -31.082947, 65.272171
1649447724.833206, 0.323217, -9.816975, 3.196110, -0.033333, -0.409969, -1.655995, 99.377060, -30.501648, 66.013916
1649447724.866544, 0.921468, -12.477681, 3.248932, -0.208544, -0.588878, -2.111280, 102.676376, -30.236282, 66.427979
1649447724.899868, 1.395071, -14.342016, 0.355838, -0.382003, -1.627967, -2.753301, 107.452255, -28.923294, 63.471649
1649447724.933188, -1.902343, -20.128652, -1.303942, -0.602893, -2.592149, -3.168274, 113.444382, -27.425278, 61.213470
1649447724.966554, -6.604405, -23.293936, -1.819593, -0.998740, -2.238774, -3.276317, 119.690598, -25.557770, 57.794907
1649447724.999849, -1.506701, -15.792603, 6.301389, -0.677806, 2.095530, -3.722396, 122.433594, -21.940338, 54.260452
1649447725.033209, 8.111555, -5.294627, 6.435016, -0.713150, 2.587691, -2.456589, 123.254349, -19.113968, 54.304703
1649447725.066573, 8.156147, -2.801814, 11.731738, -0.634768, 0.325594, 0.242573, 123.520111, -18.743256, 53.970123
1649447725.099808, 0.386065, -1.912069, 4.076727, -1.173766, -0.553915, 2.217253, 123.458435, -21.415817, 50.210587
1649447725.133855, 2.648137, -0.998981, 4.267814, -1.261938, -0.237624, 3.569124, 120.226517, -26.574799, 45.338654
1649447725.167193, 0.931344, -3.732261, 2.156278, -1.254475, 0.725610, 4.078334, 116.915558, -31.277176, 43.845596
1649447725.200517, 4.195240, -6.298546, 2.006341, -0.819878, 2.267441, 4.830850, 110.859970, -36.306137, 43.593796
1649447725.232986, 5.163994, -7.766192, 3.403807, -0.517533, 2.023121, 5.189770, 99.185822, -40.133392, 42.083801
1649447725.267190, 6.063016, -10.581174, 3.177704, -0.285120, 1.614467, 5.462916, 89.391571, -41.201126, 42.133560
1649447725.300503, 6.868965, -11.070340, 3.727024, 0.251324, 1.276370, 5.723754, 79.644775, -39.293350, 43.692291
1649447725.333850, 4.182221, -12.772617, 2.735974, 1.266381, 1.040236, 4.859287, 69.280182, -31.782883, 44.382080
1649447725.367186, 9.310901, -14.832977, 2.752883, 1.089043, 0.554843, 3.080382, 66.509567, -26.283081, 46.600861
1649447725.400515, 10.611551, -11.523143, 2.928707, 0.772834, 0.271972, 0.788041, 66.627335, -23.198441, 49.379257
1649447725.433832, 10.420314, -11.548881, 0.964863, 0.280777, 2.120898, -2.922236, 70.212906, -23.613922, 48.803986
1649447725.467179, -0.376937, -14.211981, 1.715745, -0.169158, -1.630289, -1.492125, 74.196152, -24.386505, 48.999832
1649447725.500517, -4.522647, -15.890316, 2.699612, 0.662510, 2.693013, -3.922831, 77.395966, -25.385666, 50.209625
1649447725.533845, 8.303690, -0.323965, 3.533093, 0.874079, 1.468141, -2.544065, 78.856201, -25.919632, 51.082718
1649447725.567176, 11.791294, -13.648147, 0.304363, 0.595436, -1.310335, -1.337965, 83.019775, -25.962097, 50.578400
1649447725.600522, -1.329380, -9.118467, 2.324770, 0.559860, 0.269373, -1.280299, 84.754974, -25.826508, 51.987427
1649447725.633840, 5.146935, -9.719411, 1.848174, 0.498002, -0.141952, -1.029656, 85.507812, -25.830170, 53.329224
1649447725.667176, 0.973842, -9.484331, 2.653673, 0.520252, -0.595771, -0.868175, 88.247559, -25.466278, 52.541138
1649447725.700506, -0.832733, -8.674193, 3.752761, 0.458508, 0.293110, -1.055980, 89.256088, -25.017731, 53.466141
1649447725.733844, 1.692551, -9.851841, 1.635838, 0.487039, -0.450077, -1.278363, 90.285660, -24.657379, 54.651428
1649447725.766173, 1.334169, -9.824906, 2.675820, 0.520230, -0.579449, -1.445127, 91.988846, -24.085297, 56.013550
1649447725.799546, 2.801066, -8.743475, 3.125630, 0.606089, -0.511949, -1.507027, 95.606506, -23.141968, 54.924637
1649447725.832949, 4.330363, -8.719234, 2.578854, 0.563353, -0.864566, -1.528611, 97.438370, -22.305679, 56.470215
1649447725.866310, 2.253393, -11.472416, 3.351583, 0.554749, -0.699356, -1.804695, 99.353302, -21.205032, 57.431946
1649447725.899663, 1.292270, -13.692888, 2.440739, 0.576245, -1.558675, -2.264764, 103.671066, -19.076584, 55.442947
1649447725.933075, -2.519448, -18.312201, 1.069759, 0.767203, -2.410487, -2.824380, 107.593918, -16.845612, 55.727158
1649447725.966437, -0.501286, -18.277635, -0.344915, 0.779832, -3.111502, -2.727275, 111.881653, -13.387772, 54.925934
1649447725.999786, 2.538602, -15.179837, 4.114436, 0.858497, -0.901739, -2.827692, 116.221466, -8.472763, 51.913559
1649447726.033130, 4.932804, -6.597522, 2.274043, 0.922835, -1.195862, -1.328750, 118.202057, -4.935455, 50.502029
1649447726.066451, -1.854608, -4.648193, 0.846500, 0.869862, -1.847360, 1.740504, 120.143311, -3.529999, 49.830124
1649447726.099770, -2.596063, -4.631134, -2.838925, 1.005685, 0.325596, 2.922764, 121.652054, -5.380569, 47.340393
1649447726.133128, 2.436998, -7.367108, 0.158765, 0.989517, 0.589531, 4.075854, 121.622101, -8.480484, 48.354126
1649447726.167168, 3.981108, -11.234043, -0.370952, 0.690895, 0.110066, 4.840975, 120.777786, -12.936493, 49.519440
1649447726.199781, 5.857714, -12.522273, 2.006042, 0.100597, -1.266768, 5.411969, 119.010590, -18.799042, 50.053787
1649447726.233118, 4.860828, -10.699538, 0.349254, 0.170552, -1.653399, 5.692184, 114.082016, -28.208328, 48.005676
1649447726.266451, 1.531092, -10.393678, -0.214431, 0.282104, -0.249379, 5.530078, 107.512589, -33.067581, 49.346542
1649447726.299776, 5.780201, -10.160992, -1.135001, 0.565504, 0.400974, 5.156708, 99.983887, -36.296906, 50.956055
1649447726.333108, 6.710498, -12.008567, 2.191742, 0.504121, 0.973475, 4.146636, 89.849762, -38.332245, 52.066940
1649447726.367159, 9.103952, -10.543017, 1.875109, 0.589980, 1.371782, 2.189686, 84.796799, -38.160339, 53.639786
1649447726.399823, 9.898527, -9.163657, 4.217237, 0.135288, 1.440948, -1.210524, 83.103668, -38.350540, 55.013641
1649447726.433098, 9.090933, -8.504803, 3.148525, 0.270553, 1.775715, -3.079019, 85.347946, -39.695297, 55.160172
1649447726.466468, -13.162722, -13.711144, 5.381567, -0.539289, -2.179014, -0.968963, 88.457764, -40.316925, 55.903305
1649447726.499798, -1.934665, -16.182559, -1.736844, 0.760882, 2.888953, -3.929023, 91.168961, -40.706314, 56.837006
1649447726.533114, 10.520870, 2.356792, 7.701099, 0.904187, 2.143416, -2.380285, 92.751114, -39.995377, 58.591309
1649447726.567215, 14.360571, -12.634053, 8.884733, 0.067180, -1.951604, -1.570869, 96.926498, -39.813263, 58.688751
1649447726.599760, -0.307505, -8.872014, 1.415123, 0.332997, -0.991913, -1.154790, 99.963684, -39.267059, 59.039871
1649447726.633103, -0.657508, -10.276662, 1.701978, 0.399400, 0.936416, -1.125274, 101.051880, -38.434174, 60.327576
1649447726.666442, 7.043592, -9.443330, 3.266589, 0.354472, -1.172021, -0.557351, 102.713120, -38.137253, 59.574112
1649447726.699774, -0.107889, -9.542091, 3.411588, 0.307021, -1.504796, -0.524351, 104.775269, -37.512192, 59.440491
1649447726.733123, -0.216675, -8.804228, 3.292327, 0.242732, -0.171921, -0.854331, 106.187180, -36.761169, 60.612823
1649447726.766433, 2.027590, -9.047538, 2.722656, 0.228417, -0.707369, -0.952794, 108.151978, -36.146805, 59.724136
1649447726.799777, 0.109086, -9.586383, 2.880374, 0.166639, -0.504928, -1.150669, 110.008301, -35.601425, 59.645340
1649447726.833103, 1.861791, -9.443928, 2.595015, 0.160698, -0.501589, -1.451940, 112.078094, -34.532761, 60.162018
1649447726.866488, 0.413598, -10.192565, 2.606388, 0.104394, -0.435945, -1.739679, 114.081177, -33.453079, 60.452179
1649447726.899778, -0.170886, -11.034875, 3.239953, 0.030978, -0.184049, -2.242902, 117.213608, -32.098923, 59.184998
1649447726.933093, 1.305738, -14.109629, 3.464111, -0.092438, -0.751287, -2.733282, 120.046219, -30.012772, 58.658615
1649447726.966436, -0.490213, -15.601665, 1.348833, 0.009476, -1.868194, -3.105993, 123.404953, -27.515381, 58.078369
1649447726.999789, -2.586037, -20.546590, 0.078111, 0.102769, -3.369442, -3.133339, 129.159241, -23.759338, 52.294174
1649447727.033083, -0.361375, -16.359580, 3.456928, -0.078409, -0.828137, -3.252030, 131.897034, -20.550934, 49.504044
1649447727.066463, 2.696470, -12.801347, 4.528184, 0.273110, 0.745701, -3.117224, 132.761581, -16.642029, 50.221329
1649447727.099757, 5.186439, -7.756016, 2.299331, 0.190060, 0.095272, -1.036968, 131.765320, -13.911026, 50.289017
1649447727.133101, 4.566191, -4.861127, 3.699939, 0.002169, -1.108330, 1.261213, 129.994888, -14.687607, 49.288452
1649447727.166438, 0.842160, -3.181595, -0.642245, -0.166420, -0.710089, 2.985740, 127.778976, -17.556671, 47.102203
1649447727.199789, 3.906439, -3.912425, 0.476895, -0.213646, -0.142672, 4.282732, 122.004593, -22.413681, 45.725510
1649447727.233106, 3.021931, -5.642535, -0.860865, -0.329633, 0.228167, 5.053461, 116.449066, -26.105225, 45.169739
1649447727.266431, 2.646790, -6.534225, -0.436643, -0.092004, 1.502812, 5.762548, 110.026917, -28.704742, 45.585419
1649447727.299765, 3.496582, -11.164611, 0.340575, -0.260680, 1.372391, 6.210677, 102.893250, -31.001968, 46.443207
1649447727.333090, 7.803601, -11.684153, 3.894468, 0.033194, 0.817842, 6.228714, 92.696198, -32.946915, 45.369598
1649447727.366419, 8.286482, -11.189301, 3.675100, 0.524797, -0.254409, 5.733490, 85.615463, -32.747543, 46.081009
1649447727.399757, 6.737583, -12.356325, 2.266710, 1.304024, 0.458487, 3.546490, 80.747421, -31.841003, 47.515717
1649447727.433080, 11.728446, -11.004649, 4.234595, 0.775343, -0.084410, 0.597335, 78.708176, -30.923279, 47.495316
1649447727.466416, 7.032070, -10.004022, 2.880225, 0.224355, 1.471689, -2.790195, 80.602386, -31.761093, 47.990372
1649447727.499758, -7.720702, -20.104860, -3.886089, -0.754164, -1.146609, -1.971178, 84.536499, -33.033203, 47.983658
1649447727.533076, -3.189226, -19.765481, 2.567781, 0.718686, 4.257550, -4.799245, 89.091110, -33.520676, 47.748352
1649447727.566403, 10.677541, 0.652869, 6.286425, 0.965705, 0.960059, -2.675069, 91.157654, -33.187393, 48.728119
1649447727.599756, 13.085808, -14.290391, 0.839467, 0.392102, -3.239553, -1.271041, 94.770477, -32.722733, 49.647964
1649447727.633102, -0.418087, -8.022820, 1.745822, 0.468329, -1.457968, -1.118368, 97.741638, -31.789917, 50.473160
1649447727.666411, -0.507571, -11.791892, 2.198925, 0.321673, 0.866536, -1.125227, 99.440781, -31.475464, 50.253433
1649447727.699753, 5.271882, -8.954015, 2.247108, 0.295693, -1.069028, -0.571250, 100.466705, -30.969971, 50.605225
1649447727.733087, 0.101604, -9.989208, 2.806154, 0.233625, -1.042443, -0.583507, 102.255981, -30.549789, 51.338242
1649447727.766408, -0.315436, -9.721357, 1.953968, 0.176408, -0.254521, -0.826133, 103.839355, -29.984100, 50.302185
1649447727.799750, 1.513285, -8.936507, 2.807950, 0.152302, -0.478895, -0.968261, 105.081879, -29.668243, 50.674316
1649447727.833081, 1.632846, -9.405621, 2.021005, 0.119419, -0.481169, -1.132867, 106.818619, -28.875000, 51.029495
1649447727.866406, 1.829769, -9.162460, 2.212841, 0.085639, -0.368767, -1.268542, 109.087112, -28.263046, 50.195023
1649447727.899748, 1.401207, -10.021829, 2.134431, 0.060138, -0.631856, -1.608923, 111.092087, -27.357742, 50.247574
1649447727.933085, -1.242291, -11.231050, 3.019238, -0.136585, -0.236735, -2.146504, 113.609894, -26.084274, 50.406326
1649447727.966470, 0.831835, -14.302961, 3.239504, -0.283792, -0.395539, -2.645431, 116.828598, -24.252106, 50.201599
1649447727.999739, -3.914220, -17.062577, 1.961749, -0.324268, -1.446384, -3.344374, 121.693146, -20.999893, 47.339493
1649447728.033086, -3.581127, -19.894918, -0.366612, -0.279961, -2.029883, -3.315937, 125.837982, -17.774933, 45.779633
1649447728.066411, 0.639551, -17.517326, 2.353800, -0.332139, -0.386084, -3.246774, 129.689026, -14.287521, 44.368652
1649447728.099767, 4.407426, -12.177957, 4.791695, 0.240176, 0.913791, -3.305494, 132.161499, -8.685791, 44.717178
1649447728.133071, 3.407847, -8.049156, 0.851588, 0.445998, -0.444687, -0.237478, 133.109726, -7.403122, 44.556717
1649447728.166407, 1.353622, -3.976170, 2.580500, -0.106320, -2.148668, 2.486771, 133.632568, -9.122162, 43.941330
1649447728.199732, -0.980126, -3.212570, -0.269647, 0.118395, -0.276584, 3.273735, 131.880951, -15.309723, 41.309677
1649447728.232946, 3.352331, -5.844845, 1.483358, -0.030153, 0.476792, 4.790273, 128.085342, -21.082504, 42.363205
1649447728.266446, 3.363105, -6.328474, -0.653916, -0.003898, 0.935102, 5.339244, 122.613998, -27.456100, 43.275589
1649447728.299567, 4.144513, -8.952668, -0.102651, -0.001006, 0.922578, 5.917872, 114.875854, -33.404816, 44.667557
1649447728.333075, 5.052514, -10.988937, 2.287660, 0.067294, 1.047075, 6.386459, 100.917465, -38.037033, 45.252716
1649447728.366406, 6.754342, -12.612355, 2.018761, 0.292824, 0.747828, 6.369070, 90.134048, -38.627502, 46.653625
1649447728.399732, 5.361815, -12.616844, 3.101090, 0.723630, 1.188939, 5.095854, 80.381744, -37.318237, 48.383362
1649447728.433059, 13.723564, -11.625046, 4.130148, 0.804364, 0.457116, 1.576697, 72.718445, -33.968048, 49.108521
1649447728.466407, 9.079262, -10.486154, 4.477456, 0.216475, 0.890135, -1.332095, 72.258545, -33.681519, 50.671494
1649447728.499786, 7.660847, -9.720159, 4.259285, 0.349598, 2.401512, -3.516922, 73.897766, -34.708450, 50.568329
1649447728.533045, -9.794679, -16.868198, -6.699126, -0.266553, 1.731239, -2.721226, 77.435120, -36.088242, 49.685669
1649447728.566403, 2.166453, -17.974768, 0.068384, 0.856992, 4.089020, -4.132039, 79.481934, -36.053513, 50.475449
1649447728.599726, 8.287529, 1.395969, 7.335385, 0.909178, 1.193255, -2.533012, 81.192902, -35.822739, 52.071533
1649447728.633044, 14.466515, -13.201029, 2.088642, 0.498233, -2.372315, -1.288383, 85.427338, -35.518295, 53.393707
1649447728.666402, -1.105373, -8.855553, 2.471115, 0.461207, -0.579494, -1.050563, 88.200790, -35.160797, 54.096283
1649447728.699727, 2.069638, -10.872219, 3.050961, 0.305043, 0.465983, -0.869084, 88.759735, -34.770279, 55.062943
1649447728.733071, 5.162348, -9.363274, 2.070386, 0.277503, -1.057661, -0.447391, 89.820755, -34.517609, 55.943085
1649447728.766406, -0.294188, -9.197775, 2.327613, 0.270750, -0.520561, -0.515405, 91.753464, -34.042404, 55.603958
1649447728.799723, 0.904859, -9.229049, 2.467225, 0.205645, -0.437739, -0.684135, 92.714493, -33.667709, 56.233749
1649447728.833063, 0.875380, -9.368661, 2.309956, 0.179420, -0.465663, -0.828190, 94.191727, -33.333237, 56.987259
1649447728.866380, 1.889474, -9.186252, 2.238279, 0.170770, -0.285449, -0.985952, 95.940552, -32.720642, 56.727829
1649447728.899794, 2.407669, -9.429264, 2.077568, 0.146786, -0.519723, -1.080980, 97.369705, -31.938004, 57.207306
1649447728.933103, 0.096816, -10.036493, 2.130241, 0.056271, -0.364955, -1.404590, 99.380569, -31.746933, 57.911896
1649447728.966371, -0.246752, -11.491121, 4.034080, -0.244761, -0.172131, -2.038859, 102.126785, -30.691772, 57.614426
1649447728.999717, 1.408988, -14.323611, 3.954772, -0.361856, -0.784124, -2.356520, 104.983704, -29.888077, 57.080963
1649447729.033114, 0.117316, -15.539117, 1.843535, -0.560742, -1.586256, -2.872780, 108.614853, -28.524887, 57.385605
1649447729.066415, -6.447136, -18.927960, 1.462109, -0.632380, -1.420979, -3.433656, 113.081345, -26.589920, 56.847504
1649447729.099722, -4.978293, -19.055601, 1.790564, -0.477486, -1.141883, -3.368021, 117.937973, -22.914917, 55.715759
1649447729.133042, 1.543362, -14.425963, 2.916437, -0.039189, 1.543314, -3.614375, 119.587173, -19.650620, 58.422592
1649447729.166427, 9.466374, -4.440945, 3.586364, 0.735724, 0.731230, -2.036900, 119.187531, -16.121338, 61.819153
1649447729.199705, 4.539406, -5.049222, 3.051709, 0.632837, -1.369505, 1.331416, 118.041763, -15.026123, 62.103027
1649447729.233050, -1.679532, -3.279907, -0.436343, 0.310556, -2.230255, 3.277313, 116.488098, -16.599762, 61.651398
1649447729.266423, 0.949900, -2.378041, -0.361524, 0.579586, 0.744943, 3.921489, 111.976288, -17.678619, 63.787598
1649447729.299706, 3.044976, -6.756437, 0.026187, 0.165981, 1.188444, 5.103211, 103.150909, -18.501007, 66.373810
1649447729.333043, 3.907187, -7.409456, -0.118363, 0.070546, 1.282914, 5.704710, 95.331467, -17.167191, 68.700607
1649447729.366401, 4.015974, -8.883087, -0.315586, -0.064202, 1.308193, 6.221516, 88.140945, -14.689163, 70.494247
1649447729.399706, 7.033716, -13.135189, 3.668964, -0.256441, 0.916167, 6.689840, 80.417480, -8.639267, 71.778778
1649447729.433055, 6.308871, -11.915792, 3.282002, 0.207692, 1.481903, 5.709456, 77.102997, -3.105698, 71.840027
1649447729.466374, 8.662222, -14.719253, 2.730437, 1.122489, 1.958505, 3.441297, 75.569885, 2.135223, 71.908478
1649447729.499708, 13.151649, -11.322928, 7.005434, 0.469776, -0.176842, -0.652509, 77.201263, 5.414780, 71.973602
1649447729.533057, 5.995829, -9.973496, 3.315520, 0.178716, 2.048399, -3.245581, 78.641312, 6.589050, 70.187347
1649447729.566384, -6.437859, -19.224841, -3.087473, -0.701081, -1.969250, -1.888427, 81.334152, 5.832047, 69.393311
1649447729.599710, -1.384297, -11.111490, 2.119317, 0.835309, 2.854384, -3.599714, 80.762146, 4.640686, 68.197113
1649447729.633032, 10.421511, 1.530643, 6.854300, 1.027824, 2.236939, -2.536554, 77.576828, 4.003296, 65.549637
1649447729.666364, 15.658827, -13.937695, 2.342726, 0.329870, -2.718143, -1.361893, 80.081512, 3.876053, 65.483368
1649447729.699707, 2.477699, -8.818294, -0.388758, 0.511554, -1.951821, -0.932297, 83.104996, 3.989761, 66.584076
1649447729.733017, 0.180014, -11.103709, 2.572270, 0.371557, 0.701256, -0.918473, 83.298141, 4.120285, 66.430664
1649447729.766366, 4.888661, -8.935759, 2.560898, 0.347537, -1.056806, -0.507529, 84.308960, 4.221558, 66.002548
1649447729.799702, -0.247650, -9.469965, 2.643498, 0.309640, -1.106749, -0.607646, 85.919464, 4.239944, 66.756607
1649447729.833032, -0.667533, -8.845378, 2.817676, 0.244219, -0.195333, -0.952179, 86.805176, 4.190186, 66.821701
1649447729.866375, 1.742231, -9.321375, 2.525883, 0.159178, -0.292890, -1.050767, 87.821396, 4.498062, 65.398666
1649447729.899702, 1.775600, -9.099163, 2.097021, 0.182815, -0.303140, -1.127999, 88.693756, 4.494598, 65.371689
1649447729.933011, 1.894113, -9.696666, 2.318934, 0.126379, -0.404125, -1.353549, 89.610580, 4.416428, 65.407623
1649447729.966358, -0.490063, -9.907206, 2.712780, 0.033717, -0.219147, -1.763562, 91.091156, 4.534378, 64.662277
1649447729.999700, 0.074968, -12.656498, 3.120692, -0.095401, -0.318229, -2.271430, 92.297012, 4.404404, 63.753510
1649447730.033037, 0.174926, -14.969447, 3.612551, -0.277695, -0.790982, -2.763499, 94.338226, 3.750229, 62.823532
1649447730.066357, -1.198448, -17.308432, 1.286734, -0.316568, -1.773108, -3.326859, 98.816452, 3.002563, 60.579803
1649447730.099678, -3.205686, -21.721245, -1.003021, -0.351357, -3.299117, -3.235692, 103.493042, 2.625900, 57.637527
1649447730.133028, -3.956269, -16.579248, 4.356699, -0.275037, -1.116398, -3.226964, 108.007324, 2.171661, 55.157196
1649447730.166359, 3.301754, -8.080730, 2.466177, 0.715755, 1.434627, -3.041440, 109.513489, 2.637665, 54.435379
1649447730.199463, 8.544606, -7.516147, 0.940323, 0.636829, 0.239024, -0.026561, 110.487061, 2.610321, 53.104080
1649447730.233730, 3.109020, -3.913921, 3.878457, 0.255404, -2.318280, 2.485506, 112.258911, 0.933716, 50.960815
1649447730.267064, -0.367360, -1.508497, -0.633266, 0.501028, -0.075729, 3.618662, 112.756424, -2.242935, 48.610764
1649447730.300402, 2.410213, -4.846014, 0.724246, 0.370274, 0.649646, 4.608074, 110.538086, -5.818741, 47.600998
1649447730.333732, 2.772785, -5.921759, -0.352696, 0.176646, 1.246730, 5.326075, 107.936493, -8.823303, 47.671539
1649447730.367054, 4.014777, -8.550592, -0.136320, 0.049382, 1.249869, 6.024467, 104.547821, -11.965836, 48.913483
1649447730.400398, 3.803339, -11.614572, 1.352724, 0.009636, 1.344297, 6.510724, 98.470963, -16.087723, 50.203918
1649447730.433741, 8.816199, -14.595951, 2.733879, 0.103530, 1.298984, 6.508987, 92.214554, -17.873215, 51.189316
1649447730.466233, 5.894375, -12.793117, 2.649184, 0.527828, 1.100064, 5.204667, 86.350723, -18.191269, 52.750534
1649447730.500395, 12.502371, -12.923452, 4.609886, 0.872272, 0.390328, 1.405373, 82.059113, -16.787094, 54.510330
1649447730.533725, 8.381651, -10.275914, 5.109077, 0.081371, 0.957712, -1.461378, 81.937469, -16.925613, 54.163132
1649447730.567096, 6.665457, -9.308357, 4.198981, 0.381812, 2.108273, -3.566859, 82.961945, -17.721130, 54.270020
1649447730.599544, -8.101081, -17.151013, -4.038120, -0.115651, 0.650158, -2.961918, 85.834564, -18.596634, 54.448090
1649447730.633725, 1.652448, -14.832379, 0.824054, 0.656064, 4.712945, -4.135951, 86.316452, -19.201660, 54.223572
1649447730.667057, 10.966641, -2.346318, 7.149535, 0.535355, 1.896116, -2.757335, 86.462265, -19.097870, 54.024704
1649447730.700386, 9.773430, -10.698191, -0.044891, 0.562221, -3.276892, -0.905387, 89.067917, -19.025604, 55.019012
1649447730.733716, -1.703774, -9.777171, 2.475605, 0.420596, -0.616180, -0.887671, 92.195374, -18.503677, 55.210434
1649447730.767068, 2.265663, -10.457125, 2.950554, 0.273575, 0.494237, -0.753295, 92.602463, -18.613342, 55.457947
1649447730.800395, 2.877681, -9.312247, 2.066346, 0.302091, -1.173608, -0.381897, 93.297989, -18.264145, 55.713531
1649447730.833720, -0.993145, -8.987085, 3.007566, 0.270009, -0.654044, -0.535123, 94.804047, -17.877060, 56.116821
1649447730.866604, -0.365565, -8.840440, 2.870349, 0.212892, -0.225671, -0.830640, 95.537125, -17.533508, 55.715073
1649447730.900374, 1.180641, -9.233538, 2.485481, 0.175017, -0.114024, -1.040289, 96.352539, -17.486389, 55.644745
1649447730.933699, 2.488324, -9.340828, 1.991228, 0.181344, -0.440980, -1.131453, 97.774826, -16.834549, 56.105896
1649447730.966710, 1.345841, -10.331878, 2.609381, 0.107648, -0.596434, -1.333093, 99.168396, -16.626984, 55.422043
1649447731.000093, -0.540192, -10.448745, 2.699313, -0.074892, -0.481659, -1.752286, 100.876221, -16.204971, 55.033371
1649447731.033437, 0.852485, -12.878261, 3.640533, -0.341826, -0.495086, -2.421266, 102.625931, -15.904968, 55.290421
1649447731.066767, 0.407164, -15.215900, 3.409044, -0.493574, -1.141425, -2.843570, 106.198593, -15.080215, 53.113556
1649447731.100097, -2.876035, -18.184261, 1.664269, -0.583397, -1.549552, -3.365116, 109.585663, -14.198425, 50.905151
1649447731.133436, -5.551405, -20.969615, 0.186000, -0.586770, -2.021610, -3.375427, 113.132629, -12.611359, 48.862732
1649447731.166773, -0.756717, -15.119084, 3.713107, -0.245937, 0.651376, -3.581587, 116.492340, -9.932144, 46.685165
1649447731.200131, 5.969942, -6.610391, 3.119196, 1.072423, 0.892265, -2.689430, 117.544830, -7.225571, 46.612106
1649447731.233426, 4.707599, -5.170727, 2.337938, 1.016607, -1.419847, 0.949058, 118.821701, -6.564087, 45.555176
1649447731.266745, -1.778742, -4.006098, 0.183755, 0.568296, -2.811669, 3.206833, 119.538834, -8.741104, 41.958878
1649447731.300100, 0.595558, -2.106449, -0.741155, 0.762607, 0.358349, 3.742478, 118.335953, -11.785629, 40.977249
1649447731.333422, 2.736273, -6.150255, 0.019004, 0.334540, 1.266980, 4.975185, 115.965179, -15.793869, 41.628036
1649447731.366762, 2.234838, -7.736414, -0.545429, 0.057794, 2.006528, 5.628344, 112.226501, -19.920303, 43.447647
1649447731.400112, 3.512593, -9.912294, -0.258574, -0.308566, 2.407115, 6.009388, 104.860947, -26.096786, 44.057007
1649447731.433023, 6.916699, -12.472893, 2.459593, -0.474290, 2.008815, 6.414509, 96.971298, -30.022003, 44.488449
1649447731.466759, 7.725939, -10.664373, 3.543718, -0.066239, 0.524362, 6.086593, 88.690918, -32.506561, 44.787628
1649447731.500083, 4.350564, -14.500482, 2.964770, 1.319789, 1.408684, 3.734476, 79.186600, -32.649094, 46.046616
1649447731.533420, 15.301642, -10.897358, 6.038476, 0.640196, -1.125403, 0.933456, 76.381531, -32.638321, 47.413986
1649447731.566751, 4.101866, -10.140192, 3.664775, 0.103456, 1.573208, -2.690670, 76.751862, -34.002457, 47.943710
1649447731.600085, 3.433136, -14.960468, 1.890372, -0.655566, -1.139797, -2.476801, 79.914078, -36.032928, 47.927673
1649447731.633420, -4.386327, -11.891251, -2.410363, 0.476401, 1.828562, -2.949884, 81.795151, -36.664703, 47.988968
1649447731.666738, 10.841394, 0.572962, 8.128464, 0.837049, 2.546467, -2.713913, 83.628632, -36.833694, 48.194946
1649447731.700103, 17.029657, -12.930335, 2.159420, 0.471128, -1.737656, -1.700593, 85.667343, -37.000305, 49.987030
1649447731.733420, 4.377498, -9.930550, 0.574010, 0.438369, -2.293373, -0.958253, 89.677185, -36.631058, 50.238083
1649447731.766640, -0.154276, -10.890326, 2.355595, 0.282472, 0.753504, -0.911830, 90.740723, -36.504425, 50.610443
1649447731.799670, 4.006846, -8.976610, 2.267908, 0.304192, -0.631403, -0.683528, 91.644348, -36.308670, 51.656494
1649447731.833697, 0.141408, -9.223961, 3.008763, 0.259415, -0.839230, -0.726720, 93.514374, -35.568558, 51.480087
1649447731.867019, 0.355240, -8.599224, 2.611625, 0.251630, -0.047571, -1.015451, 94.421906, -35.547577, 51.841705
1649447731.900367, 1.571045, -9.240870, 2.662502, 0.245751, -0.310351, -1.158946, 95.857574, -35.392944, 52.476746
1649447731.933677, 1.815703, -9.652523, 2.444779, 0.210905, -0.386730, -1.289166, 97.969543, -34.453949, 52.860291
1649447731.966539, 2.065597, -9.662100, 2.308908, 0.184039, -0.432906, -1.421837, 99.784470, -34.006134, 52.925690
1649447732.000353, 1.237353, -10.708965, 2.941277, 0.090190, -0.697602, -1.715972, 102.040527, -33.529984, 53.070557
1649447732.033690, -0.185551, -12.127080, 3.383755, -0.104333, -0.494155, -2.219543, 105.036804, -32.224152, 52.673248
1649447732.067017, 1.117943, -14.278121, 3.471592, -0.296557, -0.741341, -2.744022, 107.861038, -30.890579, 51.877686
1649447732.099373, -2.021005, -18.138621, 0.880168, -0.376374, -2.121206, -3.288427, 111.358185, -29.262054, 50.898239
1649447732.132758, -4.963330, -21.916073, -2.101511, -0.606386, -3.104344, -3.242513, 114.822357, -26.659363, 49.235840
1649447732.166123, -3.254768, -17.813609, 4.195389, -0.310859, -0.044509, -3.317870, 116.873978, -22.662445, 47.598221
1649447732.199500, 4.730942, -6.663362, 3.121141, 0.618720, 1.437682, -3.074430, 115.863846, -19.047943, 49.850479
1649447732.232935, 8.683470, -7.899219, 0.828992, 0.741073, 0.012217, -0.045656, 113.404938, -16.854538, 51.677536
1649447732.266247, 2.914492, -4.024952, 2.643199, 0.344341, -3.173078, 2.579830, 109.388046, -15.527008, 50.829926
1649447732.299610, 0.581791, -1.176152, -0.405069, 0.742957, -0.762340, 3.661186, 105.663910, -14.980042, 49.736603
1649447732.332822, 2.108394, -4.456357, 0.194230, 0.737371, 0.076014, 4.762051, 101.079117, -14.198578, 50.772171
1649447732.366352, 1.197849, -6.544550, -1.076194, 0.575006, 1.149075, 5.262887, 94.033417, -11.677353, 50.523651
1649447732.399742, 3.620781, -8.465299, -0.931793, 0.351067, 1.788348, 5.825681, 89.300827, -9.267456, 50.038330
1649447732.433133, 4.227861, -10.987889, 0.712425, 0.003255, 1.475942, 6.429341, 85.814575, -6.901459, 49.681824
1649447732.466502, 6.228366, -14.826393, 2.132934, 0.151614, 1.679189, 6.492974, 83.525848, -4.948563, 49.697952
1649447732.499893, 9.330204, -12.123639, 3.753659, 0.449682, 0.800748, 5.287502, 81.525909, -2.797348, 48.704773
1649447732.533260, 11.547085, -12.642283, 4.134786, 0.845820, 0.234020, 1.705281, 80.781036, -2.273117, 48.972549
1649447732.566635, 9.450213, -11.274745, 5.622633, 0.076876, 0.375558, -1.013952, 80.967896, -2.722504, 49.862793
1649447732.599431, 7.585579, -10.717344, 4.377349, 0.176826, 0.959076, -3.310924, 82.685120, -4.254898, 49.464142
1649447732.633392, -9.225458, -12.939762, -2.917484, 0.218333, 1.968593, -2.952189, 84.114059, -5.658218, 48.991928
1649447732.666731, 3.591901, -14.229489, 1.470938, 0.740519, 4.785906, -3.739244, 83.523941, -6.861954, 49.838913
1649447732.700048, 12.478878, -4.497657, 4.434660, 0.706060, 0.303698, -2.273238, 84.234299, -7.437744, 49.654175
1649447732.733395, 6.131401, -9.673772, 0.160561, 0.654972, -2.684347, -0.877157, 86.341202, -7.156601, 50.077560
1649447732.766724, -1.833958, -10.557831, 2.306514, 0.548128, -0.186444, -0.915895, 87.801254, -7.258972, 50.583633
1649447732.800039, 3.386898, -9.752332, 3.328240, 0.412671, -0.239592, -0.655155, 88.114166, -6.751434, 51.483765
1649447732.833373, 1.088165, -9.991901, 2.391957, 0.381456, -1.408369, -0.429827, 89.474167, -6.650314, 50.960358
1649447732.866727, -1.032799, -8.891766, 3.031658, 0.328170, -0.478952, -0.651006, 90.240860, -6.371826, 51.169952
1649447732.900052, 1.439963, -9.210943, 3.219154, 0.270134, -0.655398, -0.773619, 90.977722, -6.500687, 52.091843
1649447732.933405, 0.299275, -9.526379, 2.743157, 0.200788, -0.642580, -0.935003, 92.171280, -6.360519, 51.639069
1649447732.966725, 1.372476, -9.492710, 2.290503, 0.161489, -0.451720, -1.169757, 93.147293, -6.273758, 51.371216
1649447733.000056, 1.914164, -9.312098, 2.663400, 0.109183, -0.530901, -1.294482, 94.261292, -6.457092, 51.892639
1649447733.033388, 1.621323, -9.857377, 3.084480, -0.016659, -0.657433, -1.453682, 95.792267, -6.260742, 52.085602
1649447733.066998, -0.150535, -11.878832, 3.353079, -0.218655, -0.686740, -1.996639, 97.190659, -6.275757, 51.129959
1649447733.100329, 1.019930, -14.812177, 3.449147, -0.346143, -0.792117, -2.325792, 99.004700, -6.801620, 51.451035
1649447733.133649, 1.252018, -14.139257, 0.695964, -0.425902, -1.360976, -2.630789, 102.137894, -6.859558, 50.382324
1649447733.166988, -6.057779, -20.491224, 1.406743, -0.532710, -2.654039, -2.991937, 105.379730, -7.059433, 48.581131
1649447733.200303, -6.911162, -16.495301, 2.905813, -0.532723, -0.989096, -3.480824, 108.821335, -7.299988, 46.920929
1649447733.233642, -0.251840, -18.180819, 4.930409, -0.008153, 1.616428, -3.616689, 111.196823, -6.549911, 46.307068
1649447733.266957, 7.827992, -7.445518, 2.739416, -0.097228, 0.376615, -1.170017, 114.017273, -6.058792, 45.165359
1649447733.300287, 4.211401, -4.657470, 4.679916, 0.047997, -1.347176, 1.574826, 115.137161, -7.259567, 44.107834
1649447733.333620, -3.848530, -4.254197, 0.718709, -0.171263, -1.424392, 3.117661, 115.623993, -10.432220, 41.974411
1649447733.366961, 1.438167, -2.227356, 1.628207, -0.091735, 1.128704, 4.487845, 111.975021, -15.134171, 41.742004
1649447733.400268, 3.784934, -6.358401, 0.228497, -0.316774, 1.451912, 5.322693, 106.217941, -18.911484, 41.909622
1649447733.433592, 4.969764, -8.444349, 0.450260, -0.424756, 1.355712, 5.958251, 99.264267, -22.221359, 42.208664
1649447733.466924, 6.112247, -10.809372, 0.518794, -0.671002, 1.659996, 6.191091, 88.283463, -23.678253, 41.582199
1649447733.500248, 8.678382, -9.421333, 4.407725, -0.122797, 0.988940, 6.406471, 79.999283, -22.275497, 41.340668
1649447733.533578, 6.357952, -12.980763, 2.622249, 0.301092, 1.293482, 5.041052, 73.428314, -19.492813, 42.401550
1649447733.566943, 9.774328, -14.219762, 3.654599, 1.024826, 1.799036, 2.663424, 67.569366, -16.180130, 43.295898
1649447733.600254, 10.780192, -10.449344, 4.910059, 0.366082, 0.510177, -0.991676, 66.286896, -15.513611, 43.808258
1649447733.633557, 7.776517, -9.982025, 4.324826, 0.279419, 1.994325, -3.099902, 65.946198, -16.952682, 43.314377
1649447733.666897, -3.294721, -17.018584, -5.645079, -0.314868, -1.047594, -1.762602, 66.933319, -18.911987, 43.676605
1649447733.700256, 5.869236, -16.883312, 1.645415, 0.554215, 3.995771, -3.954646, 68.417343, -20.989960, 41.853653
1649447733.733537, 10.099042, -0.474501, 4.869357, 0.899682, 1.568424, -2.593751, 69.524200, -22.466965, 40.906601
1649447733.766862, 13.987525, -14.239814, 0.593912, 0.648141, -2.677449, -1.091825, 70.955246, -23.529160, 42.612167
1649447733.800173, -0.632967, -8.977508, 2.005294, 0.573597, -0.497117, -0.766431, 72.966492, -23.645020, 44.389175
1649447733.833514, 2.729091, -11.071686, 3.071162, 0.444086, -0.118729, -0.642317, 73.642883, -23.528702, 44.414413
1649447733.866842, 3.230826, -9.160664, 2.363376, 0.447750, -1.280554, -0.434611, 74.335938, -23.820648, 45.496674
1649447733.900156, -1.088015, -9.612570, 3.079692, 0.379285, -0.760759, -0.579404, 75.685837, -23.822525, 46.644119
1649447733.933497, 0.866701, -8.956858, 2.679710, 0.288722, -0.414636, -0.888740, 76.560867, -23.938889, 47.179337
1649447733.966823, 1.178995, -9.311798, 2.940529, 0.255218, -0.529638, -1.029936, 77.327789, -24.089111, 47.231628
1649447734.000159, 1.719336, -9.479393, 2.043750, 0.194540, -0.569509, -1.206174, 78.721634, -24.764786, 47.922913
1649447734.033476, 1.729661, -9.426870, 2.443881, 0.144710, -0.429995, -1.470339, 80.428879, -25.090027, 47.891464
1649447734.066804, -0.058209, -10.518476, 2.372504, 0.064525, -0.390797, -1.868735, 81.932114, -25.533432, 47.833725
1649447734.100130, 0.194080, -12.552949, 2.477101, -0.079908, -0.296197, -2.341081, 84.126984, -26.309250, 48.047134
1649447734.133451, 0.106093, -15.651794, 3.120393, -0.191913, -1.391405, -2.988248, 87.615509, -27.040894, 47.119461
1649447734.166794, -3.683330, -19.894768, 1.678335, -0.181325, -2.479896, -3.344234, 90.889114, -27.269516, 45.573196
1649447734.200116, -5.807286, -20.895994, -0.404470, -0.308070, -3.202212, -3.167720, 94.196533, -27.112045, 44.270325
1649447734.233455, 1.687314, -14.190583, 4.060566, 0.220719, 0.974165, -3.371387, 95.409363, -26.224045, 42.060989
1649447734.266765, 8.202086, -6.538415, 3.846884, 0.586994, 1.185291, -2.324679, 94.525711, -25.192535, 40.031769
1649447734.300098, 6.287174, -6.722320, 2.668188, 0.673746, -0.150635, 0.251031, 91.179245, -23.588318, 38.369141
1649447734.333423, 2.263418, -4.633828, 1.580173, -0.191951, -2.830519, 2.728651, 86.528290, -20.915222, 36.985260
1649447734.366745, 0.800561, -1.649755, -0.746093, 0.157030, 0.024092, 3.691314, 78.586700, -14.802612, 34.078964
1649447734.400078, 1.878850, -4.565144, 0.437690, 0.046078, 1.031945, 4.658764, 72.961395, -7.850632, 30.430267
1649447734.433408, 2.275389, -5.834669, -0.603788, -0.049602, 2.141070, 5.188569, 70.753662, 1.562897, 26.750168
1649447734.466731, 4.850353, -9.072678, 0.160262, -0.211879, 2.039230, 5.918428, 75.048584, 14.574982, 21.196915
1649447734.500055, 4.424185, -10.869526, 2.097171, -0.370698, 1.847020, 6.349463, 84.304108, 20.426773, 18.203888
1649447734.533401, 9.460389, -13.969418, 4.171747, -0.391960, 0.529199, 6.811351, 94.948837, 19.400330, 17.983841
1649447734.566730, 3.196110, -14.739154, 2.448670, 1.084659, 1.273557, 4.495110, 104.336716, 11.021179, 19.428604
1649447734.600067, 15.150957, -11.658864, 5.896171, 0.943627, -0.818075, 1.620457, 106.515152, 3.643707, 20.257721
1649447734.633366, 9.669283, -10.781539, 5.252130, 0.185998, -0.537711, -1.144639, 106.870117, -1.024994, 20.821106
1649447734.666709, 6.335357, -10.815956, 4.898537, -0.156574, -0.210350, -2.856736, 108.388031, -3.555161, 22.089722
1649447734.700020, -11.032781, -17.567754, -5.746832, -0.051837, 1.765030, -2.926571, 109.648758, -6.468750, 22.345947
1649447734.733350, -1.013645, -17.416171, 1.106121, 0.973855, 5.105735, -4.303125, 110.676819, -7.890167, 25.817078
1649447734.766674, 12.496835, 0.641796, 6.653038, 0.828382, 1.385380, -2.521551, 111.641449, -8.943863, 28.730682
1649447734.800074, 9.926959, -12.006173, -1.194258, 0.519135, -3.092327, -0.935779, 112.518784, -8.831436, 26.876297
1649447734.833399, -2.499098, -9.472360, 2.527678, 0.468717, -0.437685, -0.963266, 112.770386, -8.226913, 25.970505
1649447734.866657, 2.401384, -10.572645, 3.266439, 0.333303, 0.370473, -0.805345, 113.179153, -8.446579, 26.748459
1649447734.899982, 1.938406, -9.759664, 2.376245, 0.351595, -1.552632, -0.450529, 113.165085, -8.024231, 26.176239
1649447734.933314, -1.541567, -9.363124, 2.815581, 0.297360, -0.646255, -0.664209, 113.199905, -7.890625, 25.397751
1649447734.966635, 0.756418, -9.200917, 3.006219, 0.208848, -0.469505, -0.855860, 113.472717, -7.800095, 25.680252
1649447735.000015, 0.994791, -9.042451, 2.518551, 0.157059, -0.542852, -1.048884, 113.659897, -7.585068, 25.799652
1649447735.033280, 1.312322, -9.218873, 2.536058, 0.135713, -0.309927, -1.186809, 114.102310, -7.484222, 25.629852
1649447735.066609, 2.490419, -9.273641, 2.494160, 0.077781, -0.530401, -1.318716, 114.441360, -7.418671, 25.714401
1649447735.099938, -0.524629, -10.440216, 2.495955, -0.074286, -0.245276, -1.825212, 114.834442, -7.405563, 26.150665
1649447735.133266, 0.237026, -12.116157, 3.513192, -0.241184, -0.126219, -2.296229, 115.751678, -6.807297, 26.656906
1649447735.166591, 1.055693, -15.262886, 3.185336, -0.329635, -0.963222, -2.714030, 116.177353, -6.090164, 26.657089
1649447735.199904, -2.909554, -16.982970, 1.801936, -0.373529, -1.730069, -3.350018, 116.343109, -5.251190, 27.171951
1649447735.233245, -5.500828, -20.430621, -0.480486, -0.334548, -2.454424, -3.307600, 116.088837, -3.534744, 27.593796
1649447735.266575, -0.705242, -16.726192, 3.538929, -0.099930, -0.088634, -3.567134, 115.616486, -1.912506, 29.205261
1649447735.299897, 4.657770, -10.357466, 3.040187, 0.469004, 0.588741, -2.857557, 115.122528, -0.019943, 31.928711
1649447735.333219, 6.815993, -8.415170, 1.732355, 0.686048, -0.067504, -0.088026, 114.368118, 1.010651, 34.253403
1649447735.366556, 2.483236, -4.842572, 2.837728, -0.153434, -2.659931, 2.429575, 113.732697, -0.159119, 33.140045
1649447735.399883, -0.804601, -1.356764, -1.170765, 0.088111, -0.998576, 3.313526, 112.494415, -2.505005, 31.138657
1649447735.433196, 2.085200, -4.326472, 0.198419, 0.131231, 0.685520, 4.614937, 111.186737, -5.515793, 30.259048
1649447735.466586, 2.359186, -5.453842, -0.642095, -0.005742, 1.814831, 5.292574, 108.538742, -9.744080, 27.910568
1649447735.499912, 4.067000, -7.713968, -0.686837, -0.094660, 1.847056, 5.877837, 105.890900, -13.424545, 26.198090
1649447735.533196, 4.809053, -11.043704, 1.310975, -0.156372, 1.826906, 6.537505, 102.832169, -17.522446, 23.968185
1649447735.566526, 11.426477, -13.863176, 5.322759, -0.264725, 0.649520, 6.845731, 96.043030, -22.672562, 22.263733
1649447735.599837, 5.547814, -11.265916, 3.264045, 0.621038, 0.340827, 5.530385, 89.665558, -25.212570, 21.670990
1649447735.633028, 12.558785, -11.912350, 5.354033, 1.174296, -0.435575, 1.671186, 85.201126, -26.114334, 23.126678
1649447735.666362, 10.828824, -10.985196, 3.867234, 0.268081, 0.025057, -1.262192, 84.232880, -27.371460, 25.192627
1649447735.699688, 3.707122, -9.884611, 3.064578, 0.318836, 2.273630, -3.735865, 87.259384, -28.303085, 25.432617
1649447735.733061, -13.533674, -20.114885, -3.778649, -1.152275, -1.783941, -1.847566, 89.078827, -28.876480, 25.960129
1649447735.766340, -1.975965, -19.955372, 0.749684, 0.980928, 4.926930, -4.716007, 92.592804, -28.278656, 27.481979
1649447735.799673, 11.819276, 4.189554, 7.915380, 1.086549, 1.978629, -2.538558, 97.178925, -26.677307, 30.555893
1649447735.833027, 17.311425, -14.762647, 3.182193, 0.186272, -3.121127, -1.166241, 99.165649, -26.428192, 30.763336
1649447735.866338, -2.521992, -8.777143, 2.060959, 0.373496, -0.742503, -0.876740, 99.939743, -26.228851, 30.514816
1649447735.899644, 1.099836, -11.065252, 2.790292, 0.263821, 0.461581, -0.818432, 101.163910, -25.319702, 31.005707
1649447735.932975, 3.781342, -8.884433, 2.133832, 0.270732, -1.376015, -0.507119, 101.905426, -25.076660, 31.020325
1649447735.966306, -1.863437, -9.191041, 2.814085, 0.210107, -0.673125, -0.745859, 102.529404, -24.861420, 31.219391
1649447735.999626, 0.521637, -9.342325, 3.195810, 0.101115, -0.412481, -0.946800, 103.685287, -24.036301, 31.819885
1649447736.032972, 1.443554, -8.809315, 2.828899, 0.053491, -0.528331, -1.076966, 104.901733, -23.466171, 31.513794
1649447736.066265, 0.585382, -8.732102, 2.641852, 0.045470, -0.138547, -1.269855, 105.871841, -23.105286, 31.484268
1649447736.099590, 1.009006, -8.453328, 3.288137, 0.030344, 0.406670, -1.465737, 107.799591, -21.974747, 32.670380
1649447736.132935, 3.279607, -10.226982, 1.371878, 0.059983, -0.295692, -1.656449, 109.246872, -20.912949, 32.785141
1649447736.166261, 0.355389, -12.788329, 1.903839, -0.062835, -0.528130, -2.094894, 111.016693, -19.732590, 32.785614
1649447736.199593, 0.275483, -14.915577, 3.756652, -0.269748, -0.612647, -2.735021, 113.257477, -17.773438, 33.485092
1649447736.232909, -0.701351, -17.150415, 2.524985, -0.361884, -1.710872, -3.185875, 116.415817, -14.291092, 33.171982
1649447736.266239, -6.381894, -21.445014, 0.708384, -0.286837, -2.623509, -3.438951, 118.980179, -11.178497, 32.472321
1649447736.299560, -1.507300, -16.153828, 3.698293, -0.290206, -0.394076, -3.452911, 121.527481, -7.804428, 32.012802
1649447736.332887, 3.381511, -12.602329, 4.171148, 0.289911, 1.180876, -3.013134, 124.352005, -2.678909, 35.636856
1649447736.366231, 7.685238, -6.141127, 3.443161, 0.061092, 0.335632, -1.102862, 125.721252, -0.772461, 38.078018
1649447736.399529, 4.187159, -4.099023, 3.139995, -0.337222, -2.128191, 2.034305, 127.019608, -1.709915, 39.741302
1649447736.432857, -1.063474, -1.440561, -0.173280, -0.200826, -1.155901, 3.283095, 128.455338, -6.942337, 38.747742
1649447736.466200, 1.218649, -1.922694, -0.024241, 0.052893, 1.296806, 4.135814, 127.618820, -12.450500, 40.714920
1649447736.499535, 2.912995, -6.392369, 0.135272, -0.439118, 2.141444, 5.039850, 125.248291, -19.566055, 44.129578
1649447736.532849, 4.669591, -7.238270, 0.357784, -0.458127, 1.913502, 5.604029, 120.780136, -27.407059, 47.250031
1649447736.566178, 4.782717, -9.280973, 1.072602, -0.451805, 1.889857, 6.101748, 110.246323, -37.949585, 49.884445
1649447736.599519, 6.366182, -12.061539, 5.020940, -0.766089, 0.951375, 6.642185, 99.057678, -44.780487, 50.031525
1649447736.632835, 6.731448, -12.039842, 3.434183, 0.406774, 0.166628, 6.031711, 85.942917, -48.831024, 50.495941
1649447736.666222, 7.218967, -14.527716, 3.657442, 1.516799, 0.305903, 3.737656, 71.293930, -47.398575, 53.073486
1649447736.699481, 13.277045, -11.752537, 7.265055, 0.771949, -1.760343, 0.434664, 68.246979, -46.364304, 55.217224
1649447736.732812, 5.572504, -8.885481, 2.177377, 0.060416, 0.999935, -3.208438, 69.420303, -47.391846, 56.555313
1649447736.766135, -6.068104, -18.725799, -1.645565, -0.600677, -1.998382, -1.545444, 73.557510, -49.278442, 56.445877
1649447736.799461, -4.089745, -8.454974, 0.912490, 0.757476, 3.668993, -3.608435, 74.820969, -49.106415, 54.501663
1649447736.832784, 15.746964, 3.721038, 8.139537, 0.904441, 1.068714, -2.296145, 77.709030, -48.892990, 53.708939
1649447736.866109, 15.543307, -14.600141, 1.180491, 0.260343, -2.106658, -1.489428, 81.805756, -48.851059, 54.471558
1649447736.899450, 1.393126, -8.734497, 1.199196, 0.350600, -0.986298, -1.270916, 86.166794, -47.802582, 55.016495
1649447736.932761, 3.793762, -11.085902, 3.698593, 0.213668, 0.086053, -0.970526, 87.467941, -47.641022, 55.145096
1649447736.966179, 2.810793, -8.609250, 2.634669, 0.210205, -1.322518, -0.602771, 89.345947, -47.563156, 55.701797
1649447736.999473, -2.040159, -9.038111, 3.463961, 0.170914, -0.272387, -0.834099, 91.146744, -46.389969, 56.028839
1649447737.032819, 1.367239, -9.027337, 2.366070, 0.184510, -0.326094, -1.066716, 92.792084, -46.021011, 55.767700
1649447737.066087, 0.973393, -8.928277, 2.200571, 0.205292, -0.309577, -1.237391, 94.797226, -45.421387, 56.131882
1649447737.099409, 1.874660, -9.626935, 1.939453, 0.235314, -0.474211, -1.399643, 97.664597, -44.132492, 56.582565
1649447737.132767, 2.450765, -10.209923, 2.270152, 0.224854, -0.658607, -1.525536, 100.267349, -43.184738, 55.936691
1649447737.166068, 0.519093, -10.679187, 2.127847, 0.182772, -0.535344, -1.969376, 103.351166, -41.985840, 55.939392
1649447737.199394, -0.116268, -13.303382, 3.131466, 0.015488, -0.383281, -2.519743, 107.842239, -39.096237, 55.099930
1649447737.232724, 0.078111, -16.510864, 3.239056, -0.057388, -1.117483, -3.040735, 112.063126, -36.314377, 53.700226
1649447737.266060, -3.343652, -21.294927, 0.253336, -0.018688, -3.225737, -3.428704, 117.875046, -32.659531, 50.754654
1649447737.299373, -4.313304, -18.519000, -0.540790, -0.325992, -2.859051, -3.006725, 123.104416, -28.317825, 46.572678
1649447737.332694, 0.249296, -16.693272, 5.544971, -0.071707, 0.572477, -3.156486, 126.836884, -21.769485, 44.102844
1649447737.366081, 6.295104, -6.253804, 4.988469, 0.298053, 1.113745, -1.963988, 128.413727, -17.700317, 44.398453
1649447737.399374, 7.741352, -4.775385, 4.353257, 0.723696, 0.066669, 0.615405, 128.494461, -16.029144, 44.396393
1649447737.432715, 2.716222, -3.802890, -0.065691, 0.000545, -2.880083, 3.018005, 127.287384, -18.700470, 39.754639
1649447737.466005, 2.792238, -0.290896, -1.183783, 0.559646, -0.492347, 4.059544, 124.838745, -22.050583, 38.054810
1649447737.499478, 1.105373, -3.915268, -0.573561, 0.502936, 0.575825, 4.840211, 120.792191, -26.358017, 37.986771
1649447737.532708, 1.290475, -5.422717, -1.503259, 0.509340, 2.319446, 5.194465, 112.919739, -31.768631, 40.295135
1649447737.565995, 3.962703, -8.504504, -0.101305, -0.014940, 2.288557, 5.739344, 105.538666, -35.288879, 41.420761
1649447737.599300, 7.435642, -10.536133, 2.348562, -0.471800, 1.380535, 6.502907, 96.365402, -37.666656, 42.003662
1649447737.632619, 8.105420, -12.345252, 3.151218, -0.599250, 0.658071, 6.694558, 86.652634, -38.106567, 41.900024
1649447737.665997, 4.325425, -15.295657, 2.514211, 0.366020, 1.999564, 4.897146, 76.094025, -36.074448, 41.778214
1649447737.699267, 16.104448, -13.658322, 7.540388, 0.590892, -0.717223, 1.179892, 72.217575, -34.206787, 43.240952
1649447737.732665, 7.045836, -9.909002, 5.481375, 0.237713, -0.035994, -1.844750, 73.480835, -33.860916, 45.289215
1649447737.765966, 5.346103, -11.691635, 5.315427, -0.421643, 0.193655, -3.323789, 79.006332, -35.047913, 45.317703
1649447737.799299, -4.924574, -11.333552, 2.801665, 0.873121, 3.147849, -3.653082, 82.726959, -35.277496, 45.678925
1649447737.832592, 13.117681, -3.025074, 6.678775, 0.729393, 3.879361, -3.007314, 86.468185, -34.806671, 46.678375
1649447737.865940, 15.819837, -10.928782, 4.806509, 0.460568, -1.592587, -1.943643, 90.543091, -34.256058, 48.113144
1649447737.899268, 2.582895, -9.576956, -0.226551, 0.488847, -1.878507, -1.077989, 93.801453, -33.691803, 48.530075
1649447737.932596, -1.210269, -10.240150, 1.171064, 0.499500, 0.786782, -1.038663, 95.319305, -33.326309, 49.170914
1649447737.965934, 5.735011, -9.854384, 3.664026, 0.377002, -0.775457, -0.644486, 96.622406, -32.567154, 50.167130
1649447737.999235, 1.338359, -9.514857, 2.744054, 0.319751, -1.296004, -0.561022, 98.761261, -32.064682, 49.926163
1649447738.033591, -0.414795, -8.956409, 2.655619, 0.274094, -0.097302, -0.827282, 100.106720, -31.401764, 50.297897
1649447738.066942, 2.055422, -9.121459, 2.781464, 0.243460, -0.425425, -0.904650, 101.356766, -31.112610, 50.723267
1649447738.100252, 1.139790, -9.259575, 2.322825, 0.223690, -0.374239, -1.076848, 103.907120, -30.095886, 50.885803
1649447738.133479, 1.829769, -9.634567, 2.343175, 0.197868, -0.419122, -1.313317, 105.643265, -28.882538, 51.084625
1649447738.166886, 1.089960, -10.160543, 2.239327, 0.201706, -0.654263, -1.584784, 107.832001, -28.026688, 51.657471
1649447738.200213, -0.655113, -12.141146, 3.023129, 0.085225, -0.371371, -2.122300, 111.591385, -25.947388, 51.781799
1649447738.233539, 0.517746, -14.568717, 3.585467, -0.126790, -0.574784, -2.857726, 115.048782, -23.669891, 51.707047
1649447738.266860, -0.332046, -16.406716, 2.057667, -0.074565, -1.593458, -3.277967, 119.427414, -20.758774, 51.124252
1649447738.300214, -2.711882, -21.883901, -0.154725, -0.076535, -3.145804, -3.340456, 126.535004, -15.353073, 48.253113
1649447738.333548, -1.851167, -15.555427, 3.420416, -0.133934, -0.758051, -2.946985, 131.084747, -11.423218, 46.165863
1649447738.366882, 1.612196, -11.416152, 4.138826, 0.348098, 0.808481, -2.885955, 133.582733, -7.591797, 47.633286
1649447738.400185, 8.772056, -5.973084, 4.111293, 0.298512, 0.979957, -1.302737, 134.978683, -4.499802, 51.481552
1649447738.433529, 5.454291, -3.959561, 3.785532, 0.085440, -1.928859, 1.810459, 135.468033, -6.057098, 51.066467
1649447738.466885, 0.574758, -1.959355, -0.712874, 0.023483, -2.108051, 3.249700, 135.841019, -11.215317, 47.327072
1649447738.499247, 2.016816, -1.194856, -0.959327, 0.410431, -0.200486, 3.994454, 133.966064, -17.029221, 46.999756
1649447738.533517, 1.084424, -5.939565, -0.546177, 0.194538, 1.090454, 4.955235, 127.854462, -26.313690, 48.171051
1649447738.566866, 3.438373, -6.514174, -1.133505, 0.172593, 1.833675, 5.492713, 120.360046, -32.961121, 49.628082
1649447738.600199, 3.988890, -9.362825, 0.058508, -0.109263, 1.520496, 6.010850, 110.555801, -38.582489, 50.603973
1649447738.633528, 5.116259, -11.719467, 2.559551, -0.118290, 1.210017, 6.439166, 94.753098, -42.541931, 50.853271
1649447738.666870, 8.325986, -14.609269, 2.561646, 0.182948, 1.170408, 6.008153, 82.810974, -41.828003, 49.912369
1649447738.700194, 5.873126, -13.052589, 2.301726, 0.934588, 1.162184, 3.912481, 73.973267, -38.859848, 49.488098
1649447738.733528, 10.578630, -12.044630, 5.812224, 0.842501, -0.162586, 1.144144, 69.543808, -35.838608, 50.901505
1649447738.766867, 6.688801, -10.081983, 3.974674, 0.184163, 0.828492, -2.420800, 71.356171, -35.409653, 50.315033
1649447738.800189, 4.874445, -12.140398, 4.488530, -0.340287, -0.630951, -2.712337, 75.169022, -36.317963, 49.016891
1649447738.833521, -11.947515, -14.939519, -5.450250, 0.196497, 2.992301, -2.947400, 77.843796, -36.830811, 48.167297
1649447738.866854, 12.224494, -5.809830, 6.267721, 0.747147, 3.554168, -2.905274, 81.416245, -37.492569, 47.712997
1649447738.900189, 14.205696, -10.009409, 6.282385, 0.440843, -1.193011, -2.041635, 84.575394, -37.144989, 47.927963
1649447738.933518, 7.858967, -11.542596, -0.021548, 0.448042, -3.094585, -1.029249, 87.899002, -36.985260, 48.495331
1649447738.966848, -2.593519, -10.800693, 2.154931, 0.474713, 0.773457, -1.088842, 90.435028, -36.723633, 49.874954
1649447739.000193, 5.690269, -8.988132, 3.278560, 0.351789, -0.214745, -0.728595, 91.541672, -36.273972, 49.869507
1649447739.033515, 2.339285, -9.660155, 2.485630, 0.328527, -1.379726, -0.517358, 92.963257, -36.167404, 49.978470
1649447739.066848, -1.648258, -9.107842, 2.717868, 0.281540, -0.210565, -0.735064, 94.379578, -35.789032, 50.837524
1649447739.100181, 1.435474, -9.326014, 2.931550, 0.253307, -0.216864, -0.955166, 95.730682, -35.393448, 50.712265
1649447739.133513, 1.709310, -9.912294, 2.166304, 0.215827, -0.643487, -1.093347, 97.399368, -34.861404, 50.429153
1649447739.166860, 1.282843, -9.208848, 2.646042, 0.185296, -0.447311, -1.280057, 100.179123, -34.495422, 51.397949
1649447739.200179, 2.027141, -10.513239, 2.505682, 0.123097, -0.748092, -1.448221, 102.167511, -33.639832, 50.402832
1649447739.233523, -0.127491, -11.556811, 1.843835, 0.034421, -0.670450, -1.876906, 104.698654, -32.694855, 49.935150
1649447739.266843, -0.420482, -13.860482, 3.454534, -0.203968, -0.615506, -2.521986, 107.829285, -31.562500, 49.003296
1649447739.300174, -0.704195, -16.676961, 2.345420, -0.296463, -1.719427, -3.233437, 113.144684, -29.315720, 47.215622
1649447739.333509, -5.587917, -22.116737, 0.408660, -0.357348, -2.663581, -3.530302, 117.253098, -26.194092, 44.206436
1649447739.366853, -5.879411, -18.779370, 1.422904, -0.495912, -2.198606, -3.259969, 121.318512, -23.064713, 40.278625
1649447739.400171, 2.409165, -12.959215, 4.488081, 0.212494, 1.414748, -3.148366, 123.765549, -18.079834, 40.716385
1649447739.433507, 8.120982, -5.255722, 4.314800, 0.212473, 1.149386, -1.711249, 124.419495, -14.826431, 41.535995
1649447739.466848, 6.285827, -4.591929, 3.928137, 0.405789, -0.265292, 0.850496, 123.231659, -14.392334, 41.203400
1649447739.500158, -0.046687, -1.797148, -0.410606, -0.166183, -1.735605, 3.271252, 120.656189, -17.057220, 37.762909
1649447739.533334, 1.710956, -1.436820, -0.375740, 0.142826, 0.520245, 4.088632, 116.453033, -19.515015, 36.816467
1649447739.566841, 2.709189, -5.787384, 1.547402, -0.209256, 1.285655, 4.876177, 110.927048, -21.343582, 36.419464
1649447739.600171, 4.126855, -6.154146, -0.287903, -0.143331, 1.400685, 5.403779, 105.575089, -22.288498, 36.547836
1649447739.633502, 3.893122, -8.558972, 0.417489, -0.031972, 0.982860, 6.082776, 101.156372, -22.940018, 36.162857
1649447739.666848, 5.769128, -11.795334, 3.462315, 0.004619, 0.874640, 6.525364, 98.765717, -25.588440, 35.045898
1649447739.700168, 9.887903, -12.022484, 2.467823, 0.253151, 0.517657, 6.292264, 95.121506, -30.530411, 35.004669
1649447739.733495, 6.564751, -14.197616, 2.432359, 1.142370, 1.097823, 3.749903, 88.083817, -38.030655, 36.285477
1649447739.766845, 12.097452, -11.731289, 4.643554, 0.774803, -0.182345, 0.784966, 83.900208, -42.140213, 37.350266
1649447739.800175, 8.044966, -10.378565, 4.221875, 0.252459, 0.725509, -1.818382, 83.641403, -45.419434, 38.045914
1649447739.833500, 1.248726, -14.932486, 3.931129, -0.504229, -2.553754, -1.848260, 88.291779, -49.258453, 38.556549
1649447739.866605, -8.998008, -12.222100, 0.164901, 0.714346, 3.230915, -3.340157, 90.371643, -51.339249, 37.997406
1649447739.900163, 11.770943, -8.813505, 5.142296, 0.562867, 3.957019, -3.310838, 94.183121, -52.332092, 38.436615
1649447739.933482, 17.087717, -14.496293, 3.243245, 0.395582, -3.050437, -1.393518, 97.277634, -52.922729, 40.006821
1649447739.966839, 3.066374, -9.562591, 0.255731, 0.459041, -2.230565, -0.972978, 100.881195, -52.558975, 40.521896
1649447740.000195, -1.385345, -10.430190, 1.656788, 0.435053, 0.779912, -0.899655, 102.317825, -52.245148, 40.964294
1649447740.033443, 5.725733, -9.539846, 4.003853, 0.353694, -0.656292, -0.542563, 103.519012, -52.306961, 41.109085
1649447740.066830, -1.360206, -9.381081, 2.979734, 0.295567, -1.246989, -0.625591, 105.405930, -51.776810, 41.148849
1649447740.099425, -1.473481, -9.089886, 3.009960, 0.244302, -0.243722, -0.934175, 106.730713, -51.493042, 40.680984
1649447740.133508, 1.115249, -8.625411, 3.051410, 0.206212, -0.410826, -1.141596, 108.312378, -51.155502, 41.205811
1649447740.166821, 1.136498, -9.416245, 2.531419, 0.124575, -0.498676, -1.333974, 111.156570, -50.550186, 41.441803
1649447740.200162, 2.297386, -9.654169, 2.151938, 0.097817, -0.397030, -1.476943, 113.402740, -50.081299, 41.105301
1649447740.233489, 1.394772, -9.667487, 2.629133, 0.031826, -0.421002, -1.649456, 115.818832, -49.282944, 40.371307
1649447740.266808, 0.448464, -12.264298, 2.599056, -0.038544, -0.361431, -2.207294, 119.958496, -47.878174, 40.662155
1649447740.300222, 1.467945, -14.943709, 3.831172, -0.212398, -0.806345, -2.653820, 123.328751, -45.949295, 39.446564
1649447740.333484, -1.736694, -16.836625, 1.434127, -0.175228, -1.837133, -3.095942, 127.072372, -43.486877, 36.713013
1649447740.366804, -4.588637, -22.112248, -2.313547, -0.366637, -3.560831, -3.128048, 131.044662, -40.073624, 33.387558
1649447740.400165, -2.277335, -16.339229, 4.003853, -0.349033, -0.421607, -3.388676, 134.063110, -35.067795, 29.472580
1649447740.433493, 1.391929, -12.609961, 5.274576, 0.041299, 1.251337, -3.108142, 135.407166, -30.930984, 30.562546
1649447740.466690, 7.098509, -6.955605, 3.256264, -0.157795, 1.314502, -1.535384, 135.005295, -27.309204, 33.405563
1649447740.500169, 4.279037, -4.074183, 4.094983, -0.337346, -1.896904, 1.812397, 131.020966, -26.694580, 34.614197
1649447740.533496, 0.368109, -1.697489, -0.325013, -0.253149, -1.371081, 3.172880, 126.098328, -29.124893, 32.416000
1649447740.566814, 2.746748, -1.526004, 0.042497, -0.051290, 0.170203, 4.274108, 119.936920, -31.862839, 32.852371
1649447740.600134, 2.839374, -4.725256, 0.203208, -0.268743, 0.759337, 5.344564, 110.335785, -35.142899, 34.073242
1649447740.633491, 3.939060, -5.953332, -0.822109, -0.021939, 0.826402, 6.001770, 101.786804, -36.648758, 34.375488
1649447740.666825, 3.561674, -9.309853, 0.246603, 0.139283, 0.869955, 6.552239, 92.959000, -36.884415, 34.757187
1649447740.700145, 8.558672, -12.842947, 3.882048, 0.399603, 0.981524, 6.652610, 84.630478, -36.100235, 35.554276
1649447740.732639, 7.239168, -12.311135, 2.914043, 0.525684, 0.189936, 5.577548, 74.989380, -33.245514, 36.856293
1649447740.766812, 8.833856, -14.449007, 3.877559, 1.290551, 1.237548, 3.155067, 70.597626, -31.317276, 37.873871
1649447740.800144, 11.452813, -11.261128, 4.885668, 0.382365, 0.572458, -1.347370, 70.637009, -31.035309, 39.244034
1649447740.833432, 8.075343, -10.385448, 3.947590, 0.132186, 1.723629, -3.686191, 75.065201, -33.336014, 39.596359
1649447740.866815, -14.567221, -20.662559, -9.501988, -0.373096, 0.728971, -2.458220, 78.852402, -34.620453, 39.557266
1649447740.900067, 9.909451, -7.427711, 4.801272, 0.609809, 4.287291, -3.474031, 83.188980, -35.344009, 39.174927
1649447740.933472, 13.357251, -8.183082, 6.155193, 0.441797, -0.737382, -2.449458, 87.818420, -35.519287, 40.752945
1649447740.966941, 9.416994, -12.352285, -1.275062, 0.529245, -3.134765, -1.140775, 90.811295, -35.382065, 41.600510
1649447740.999863, -2.569427, -8.586954, 2.711433, 0.411347, -0.193964, -1.170372, 92.643845, -35.150330, 41.694702
1649447741.033470, 5.954978, -10.152612, 3.848230, 0.276652, -0.094900, -0.782550, 94.438889, -34.929153, 42.689896
1649447741.066806, 2.218677, -9.326313, 2.332850, 0.277637, -1.033924, -0.631865, 95.688446, -34.865784, 42.797424
1649447741.100134, 0.012121, -9.693225, 2.385223, 0.243652, -0.465313, -0.804469, 96.970108, -34.060150, 42.695282
1649447741.133462, 1.065420, -9.364321, 2.579154, 0.178504, -0.421274, -1.053534, 98.298386, -34.135971, 43.128799
1649447741.166799, 1.423503, -8.900594, 2.678962, 0.170486, -0.405648, -1.183375, 100.701706, -33.113434, 43.289871
1649447741.200153, 1.589002, -9.099612, 2.346767, 0.141756, -0.339212, -1.374800, 102.848053, -32.797195, 42.951126
1649447741.233492, 2.362329, -10.218303, 2.478298, 0.113701, -0.502989, -1.619964, 104.463501, -32.044708, 43.212280
1649447741.266803, 0.590021, -10.938658, 2.341529, 0.040652, -0.347875, -1.999334, 108.400558, -30.418167, 42.881592
1649447741.300140, 1.594688, -12.255320, 3.028665, -0.197679, -0.177930, -2.437903, 111.090332, -29.015167, 42.905487
1649447741.332552, 0.993444, -15.592687, 3.236212, -0.184633, -1.071924, -2.750879, 114.462128, -27.102066, 42.202179
1649447741.366784, -1.976264, -20.459201, 0.350451, -0.232212, -2.442232, -3.079005, 119.753387, -23.109329, 40.001266
1649447741.400037, -4.195689, -20.351013, -0.450858, -0.554063, -2.815591, -2.953080, 123.149658, -20.118652, 36.437653
1649447741.432996, -2.457049, -17.709910, 4.908712, -0.260247, 0.625009, -3.158352, 125.038986, -16.323792, 35.406097
1649447741.465899, 5.772719, -4.871303, 3.561375, 0.272672, 1.723516, -2.162494, 125.957031, -12.562042, 36.998032
1649447741.499790, 7.286453, -5.401618, 4.015675, 0.565281, 0.302311, 0.446460, 124.545807, -11.047211, 38.522064
1649447741.533461, 1.545756, -4.872051, 0.081552, -0.129156, -2.166772, 2.798775, 122.062866, -13.153122, 36.169525
1649447741.566822, 3.202843, -2.594117, 0.655113, 0.030513, -0.246287, 4.031960, 118.255432, -16.050537, 34.675705
1649447741.599166, 3.292027, -6.225074, -0.207248, 0.029146, -0.000793, 4.840846, 111.231613, -20.120163, 34.546600
1649447741.633475, 3.017293, -6.229413, -0.777367, 0.234319, 0.634543, 5.297340, 104.104782, -21.595581, 34.380676
1649447741.666812, 4.919785, -8.798392, 0.701950, 0.208056, 0.843447, 6.019266, 96.423218, -21.363495, 34.154205
1649447741.700115, 6.616227, -9.689484, 1.297208, 0.297950, 0.645598, 6.302220, 87.664841, -17.463852, 33.734390
1649447741.733474, 8.981249, -10.113557, 2.376993, 0.321882, 0.417628, 6.113781, 83.451752, -13.411133, 33.287247
1649447741.766783, 7.565079, -14.900314, 2.800318, 0.884515, 1.763114, 3.822261, 82.442276, -8.758698, 32.679291
1649447741.800119, 14.000244, -11.871200, 4.002207, 0.558747, 1.099087, 0.678778, 84.007324, -6.631882, 32.623932
1649447741.833459, 11.340585, -10.710611, 4.730942, 0.266971, 1.230326, -2.223134, 87.833069, -6.015991, 32.384277
1649447741.866798, 3.561076, -15.736040, 1.251419, -0.180531, -0.476760, -1.842690, 91.311707, -6.207993, 32.747574
1649447741.899867, 0.832284, -19.806033, 2.546383, 0.306082, 4.005394, -4.735780, 94.779312, -6.207092, 33.947830
1649447741.933508, 11.820174, 3.089568, 3.898209, 0.875392, 1.148318, -2.926797, 98.125381, -5.791519, 35.369415
1649447741.966794, 13.769203, -15.417761, 0.180762, 0.508320, -2.586332, -1.516647, 99.963364, -5.452393, 35.343430
1649447742.000111, -1.555932, -8.069806, 2.910601, 0.315219, 0.252994, -1.292741, 101.415009, -5.005661, 35.241531
1649447742.033443, 4.596568, -11.241974, 3.564517, 0.188357, 0.338104, -1.027946, 102.382980, -4.863052, 35.674683
1649447742.066789, 4.206762, -8.681375, 1.891569, 0.181444, -0.858261, -0.739313, 103.233932, -4.649506, 35.780045
1649447742.100108, 0.665588, -9.664644, 1.913715, 0.212383, -0.312085, -0.895949, 103.958786, -4.065689, 35.734558
1649447742.133426, 1.561169, -9.430461, 2.360982, 0.211252, -0.256026, -1.039950, 104.910538, -3.574326, 35.763092
1649447742.166432, 2.255637, -9.286360, 2.353800, 0.201609, -0.533563, -1.174797, 105.964218, -3.539978, 35.891052
1649447742.199744, 2.157625, -9.366865, 2.536208, 0.208620, -0.665533, -1.399361, 107.166656, -2.633560, 35.667297
1649447742.233453, 2.208501, -10.239701, 2.460940, 0.195920, -0.818927, -1.570508, 108.175079, -1.949753, 35.745422
1649447742.266771, -0.107889, -12.032659, 1.669207, 0.072702, -0.738267, -2.066215, 110.053467, -1.382690, 35.348053
1649447742.300087, -0.971597, -15.850962, 2.951751, -0.234746, -0.508021, -2.990389, 112.082794, -0.037292, 35.435303
1649447742.333457, -1.518073, -18.751836, 2.571821, -0.255710, -1.861930, -3.329611, 114.253708, 1.845291, 35.431778
1649447742.366768, -6.287772, -23.560740, 0.228347, -0.512554, -3.360364, -3.159439, 117.875092, 3.535492, 33.306198
1649447742.400111, -4.512621, -19.292178, 5.167136, -0.444728, 0.553871, -3.646107, 120.692398, 6.275406, 34.010452
1649447742.433436, 8.479364, -4.992359, 4.298191, 0.371692, 1.484112, -2.535255, 122.802780, 9.570618, 36.651291
1649447742.466756, 8.224232, -6.600964, 2.502988, 0.677351, -0.223547, 0.240949, 125.932297, 9.672058, 38.491592
1649447742.499302, 2.011129, -3.895216, -0.599598, 0.219867, -2.907455, 2.872370, 129.038345, 5.896637, 37.262390
1649447742.533445, 1.116297, -0.574159, -1.078887, 0.628385, -0.121318, 3.846162, 131.231293, 0.586868, 37.709427
1649447742.566764, 0.723647, -4.777031, -1.412878, 0.493648, 1.217652, 4.644011, 131.665939, -6.315918, 40.060425
1649447742.599124, 2.597709, -6.108506, -1.337910, 0.236366, 2.292840, 5.265603, 127.855453, -18.276367, 45.757172
1649447742.633459, 5.181052, -8.102128, -0.988656, -0.221422, 1.491557, 6.129619, 120.853394, -27.319809, 50.528030
1649447742.666772, 7.387459, -11.075577, 3.435380, -0.508108, 0.770441, 6.712050, 110.322617, -34.677704, 53.863876
1649447742.700134, 8.211962, -11.922376, 2.249951, -0.289284, 0.013677, 6.962728, 93.617355, -38.294617, 56.848984
1649447742.732529, 2.142661, -15.389330, 4.229058, 0.724069, 1.470243, 4.992165, 82.705902, -35.997559, 60.097977
1649447742.766761, 20.434661, -11.284321, 6.089502, 0.608341, -0.791623, 0.836199, 77.437698, -32.163513, 63.370697
1649447742.800091, 8.254609, -10.602124, 5.186439, 0.192793, 0.777599, -2.206421, 78.748642, -30.078094, 65.503036
1649447742.833439, 2.205060, -14.109928, 8.863185, -0.937387, -2.279547, -2.629027, 82.320709, -29.810913, 66.555038
1649447742.866754, -2.409764, -7.864653, 0.706738, 0.661807, 3.340843, -3.733249, 84.003433, -29.375610, 67.005020
1649447742.899154, 11.476905, -2.905513, 8.116493, 0.786446, 3.429933, -2.829849, 83.140152, -28.348221, 67.832382
1649447742.933418, 16.779912, -10.733206, 4.597166, 0.510570, -2.309967, -1.705724, 86.434052, -27.247772, 68.898254
1649447742.966594, 0.473603, -10.323498, 2.557606, 0.331234, -1.641298, -1.219850, 90.805450, -26.431931, 70.143585
1649447742.999151, 0.092775, -10.166977, 2.190695, 0.288710, 0.962598, -1.106324, 91.959030, -25.758835, 70.500443
1649447743.033209, 6.456863, -9.057863, 2.570475, 0.243708, -0.772621, -0.555798, 93.437927, -25.440735, 70.591019
1649447743.066146, -1.295113, -9.317036, 3.181744, 0.256277, -0.662309, -0.642602, 94.989609, -24.860779, 70.968948
1649447743.099105, -0.414795, -8.464700, 2.392107, 0.227774, 0.139981, -1.016551, 96.081055, -24.243576, 71.449982
1649447743.133414, 1.634043, -9.148544, 2.442086, 0.234154, -0.042867, -1.234959, 97.754501, -23.593002, 71.312668
1649447743.166754, 2.273294, -9.834632, 1.805078, 0.209719, -0.505769, -1.454994, 99.261093, -22.432983, 71.835190
1649447743.200084, 1.743727, -10.194960, 2.077269, 0.193285, -0.595922, -1.632613, 101.325638, -21.531311, 72.413147
1649447743.233401, 1.275810, -10.525060, 2.170194, 0.182169, -0.542976, -1.943219, 104.545197, -20.105392, 72.154770
1649447743.266750, 0.714520, -12.951584, 2.425177, -0.027435, -0.572103, -2.566998, 107.148346, -18.913971, 72.319901
1649447743.300103, 0.513107, -16.971598, 2.184260, -0.105872, -1.476610, -2.998151, 110.683365, -17.478745, 71.820984
1649447743.333416, -2.786851, -20.235942, -0.009128, -0.094207, -2.748133, -3.230610, 115.603271, -15.627274, 70.539230
1649447743.366781, -5.038298, -19.099444, -1.021127, -0.449339, -2.634221, -2.799272, 122.772705, -13.624451, 67.333649
1649447743.400077, 0.327856, -15.786169, 6.035782, 0.145331, 1.773395, -3.610383, 123.295029, -11.883881, 68.679550
1649447743.433410, 8.607454, -7.928997, 7.114370, 0.180280, 1.601476, -2.454136, 121.056458, -9.429779, 70.843567
1649447743.466760, 5.803395, -7.424868, 3.460669, 0.550691, -0.324360, 0.092446, 119.245651, -9.695038, 69.993073
1649447743.500116, 1.170465, -2.585588, -0.573262, -0.105228, -2.587787, 2.953232, 118.434341, -12.486313, 67.189240
1649447743.533423, 2.347515, -1.210119, -0.841113, 0.293362, -0.472385, 3.790644, 114.869904, -14.999420, 65.645691
1649447743.566716, 1.431882, -4.428226, -0.419584, 0.176858, 0.430376, 4.668418, 106.320343, -17.841797, 64.931229
1649447743.599282, 2.454506, -5.776610, -1.313669, 0.203430, 1.935423, 5.376964, 96.967560, -17.603622, 64.497025
1649447743.633405, 4.485686, -8.073398, -0.197821, -0.051289, 1.843032, 5.996302, 87.219070, -14.706955, 63.101913
1649447743.666759, 7.293636, -10.677990, 2.661754, -0.326936, 0.941008, 6.653454, 80.092361, -9.038330, 59.958359
1649447743.700057, 6.510583, -9.558252, 1.587356, 0.080365, 0.365724, 6.570461, 77.345016, 0.838776, 55.920685
1649447743.732594, 4.455909, -16.462531, 1.549946, 0.745843, 2.167500, 4.382309, 79.468246, 7.597992, 53.180115
1649447743.766749, 15.965285, -12.937966, 6.612785, 0.757502, -0.117877, 1.503580, 83.632736, 11.276016, 50.667969
1649447743.800071, 9.568128, -10.344747, 6.299893, 0.307188, -0.112635, -1.433056, 90.038651, 12.036636, 48.356155
1649447743.833417, 5.051317, -12.237214, 4.606145, -0.050479, -0.982267, -2.604976, 93.046890, 12.537796, 48.125153
1649447743.866735, -10.521469, -16.544532, -4.562600, 0.287404, 3.041993, -3.144967, 96.952652, 11.894348, 47.620071
1649447743.900074, 3.073407, -19.824888, 1.009156, 0.881732, 4.522554, -4.440913, 98.845840, 11.768356, 49.729095
1649447743.933405, 14.905851, -7.726538, 5.586720, 0.533689, -1.947050, -1.902546, 100.815964, 12.562683, 50.206482
1649447743.966771, 6.787113, -13.081170, -0.558896, 0.414687, -2.200475, -1.190272, 103.436203, 13.243759, 49.528641
1649447744.000048, -0.448015, -9.280225, 1.026813, 0.418116, 0.371914, -1.023470, 104.897873, 13.559402, 49.584595
1649447744.033404, 6.735039, -9.651326, 3.063980, 0.378155, -1.021911, -0.472700, 105.515305, 13.919540, 49.843292
1649447744.066743, -0.041450, -9.469816, 3.005920, 0.303459, -1.424834, -0.529609, 106.349884, 14.181351, 49.454666
1649447744.100064, -2.134281, -9.217527, 2.650531, 0.244070, -0.348525, -0.866373, 107.546112, 14.302094, 48.811218
1649447744.133380, 1.614290, -8.479813, 2.618808, 0.241214, -0.161351, -1.196084, 108.868851, 14.574539, 49.388702
1649447744.166725, 1.942296, -9.104999, 2.412457, 0.230728, -0.362690, -1.367148, 110.023010, 15.042557, 49.852814
1649447744.200059, 2.534562, -9.631724, 1.600225, 0.201850, -0.495293, -1.529488, 111.323349, 15.802521, 49.777893
1649447744.233394, 1.245883, -10.426150, 1.813907, 0.140561, -0.525309, -1.813258, 113.770874, 16.498840, 49.172623
1649447744.266125, 0.874781, -12.467356, 2.629282, 0.038872, -0.256702, -2.392831, 115.419342, 17.348129, 50.202103
1649447744.300094, 1.106121, -15.699379, 2.831293, -0.121786, -0.935181, -2.833341, 118.116165, 17.910126, 51.048141
1649447744.333389, -1.798794, -18.810794, 1.213411, -0.079110, -2.259278, -3.160180, 124.382294, 17.709595, 50.081940
1649447744.366724, -5.466561, -21.021689, -0.748188, -0.425422, -3.487936, -2.901563, 131.071579, 16.404282, 47.706009
1649447744.400052, -1.488894, -16.503232, 5.178658, -0.132633, 1.227030, -3.412232, 136.963562, 14.865051, 47.845062
1649447744.433381, 5.195418, -8.361151, 4.856638, 0.360221, 2.171199, -3.206615, 140.733551, 13.125977, 50.627731
1649447744.466714, 5.879112, -6.128558, 4.170250, 0.520859, 0.519579, 0.330867, 143.240082, 6.560837, 52.321289
1649447744.500045, 2.668637, -4.152743, 0.785149, -0.509491, -2.759467, 2.776684, 144.922424, -1.463486, 47.997269
1649447744.533395, 0.934487, -0.783951, -0.439336, -0.128110, -0.548711, 3.563042, 144.760132, -10.800079, 43.739914
1649447744.566712, 1.817648, -4.673033, 1.280898, -0.207639, 1.058537, 4.824893, 140.600983, -24.332718, 42.421875
1649447744.600048, 3.479972, -5.451896, -0.506673, -0.277301, 1.730603, 5.356030, 135.086975, -34.750916, 41.174911
1649447744.633386, 4.966472, -8.530541, -0.131980, -0.226179, 1.641603, 5.887754, 126.555283, -45.604279, 41.080078
1649447744.666380, 4.986972, -10.301651, 1.746121, -0.351329, 1.475228, 6.380981, 108.513092, -58.640854, 39.635147
1649447744.699355, 9.060707, -12.298864, 3.320758, -0.100464, 0.536584, 6.684296, 90.731400, -62.960114, 38.482941
1649447744.733379, 5.272780, -13.872603, 3.028067, 0.648883, 0.547338, 5.087237, 74.274475, -61.489548, 39.595581
1649447744.766698, 11.172392, -12.986150, 4.828506, 1.216665, 0.415150, 2.465394, 62.625458, -55.614746, 43.118454
1649447744.800115, 9.017012, -10.048764, 3.653252, 0.247203, 0.484506, -1.730992, 62.881454, -54.526413, 45.338074
1649447744.833379, 8.933664, -8.552388, 4.338443, 0.493051, 1.554413, -3.663361, 67.690018, -55.548141, 45.920975
1649447744.866710, -13.678074, -22.090401, -6.621464, -0.811523, 0.390147, -2.437775, 71.606018, -55.358994, 47.529755
1649447744.900041, 6.002862, -15.258397, 2.010830, 0.534927, 4.793394, -3.964774, 78.519440, -53.965195, 48.827026
1649447744.933376, 15.361347, -3.475932, 7.820211, 0.503236, -0.230445, -2.469323, 81.852951, -52.791641, 50.990051
1649447744.966706, 11.814338, -13.708899, 0.303764, 0.452744, -3.245695, -0.912223, 85.918610, -52.292923, 52.877548
1649447745.000040, -2.184709, -9.980679, 1.360056, 0.469331, 0.495617, -0.871274, 89.238052, -51.659149, 53.856064
1649447745.033443, 5.181651, -10.358513, 3.784634, 0.342865, -0.298025, -0.590498, 90.546051, -50.736282, 54.838760
1649447745.066706, 2.452261, -9.166051, 2.618508, 0.339576, -1.671379, -0.429049, 92.521484, -50.377335, 55.531921
1649447745.100031, -2.339285, -9.032126, 3.292476, 0.255594, -0.299145, -0.814435, 95.184921, -49.646378, 55.744888
1649447745.133370, 1.408539, -8.930073, 2.919579, 0.224259, -0.373010, -1.023855, 97.085220, -48.672913, 56.676971
1649447745.166702, 1.484854, -9.201815, 2.938583, 0.140241, -0.505640, -1.122782, 99.168716, -47.933197, 57.421631
1649447745.200046, 1.730709, -9.099014, 2.533514, 0.141821, -0.369464, -1.238452, 101.238480, -46.787140, 57.736526
1649447745.233369, 1.636886, -9.746945, 2.741959, 0.103188, -0.368769, -1.381425, 104.585648, -45.257202, 58.393890
1649447745.266702, 1.609053, -10.282498, 1.984644, 0.114968, -0.472701, -1.670223, 107.299774, -43.580414, 59.348907
1649447745.300049, -0.001646, -12.880805, 2.821567, -0.084151, -0.565364, -2.199027, 110.541580, -41.576645, 59.271515
1649447745.332471, -0.172831, -16.155624, 2.806902, -0.173090, -1.339103, -2.900814, 116.678894, -37.275269, 59.223358
1649447745.366683, -3.834314, -19.454385, 0.409259, -0.275905, -2.257041, -3.340218, 122.822495, -32.994522, 57.821823
1649447745.400028, -5.818658, -20.293852, -0.999579, -0.347764, -2.885422, -3.212593, 128.724686, -27.099670, 56.460342
1649447745.433361, 1.569698, -16.452056, 4.924274, -0.042114, 0.961577, -3.528788, 133.770447, -18.806015, 56.494293
1649447745.466693, 6.555474, -8.959252, 3.621978, 0.265743, 1.159250, -2.801785, 135.075241, -13.018478, 58.930786
1649447745.500011, 6.929269, -7.693168, 2.015020, 0.560420, 0.609514, -0.363874, 135.647751, -10.669769, 60.525208
1649447745.533344, 2.340033, -3.395577, 0.772878, -0.250600, -2.605997, 2.693127, 136.400650, -13.496979, 58.413284
1649447745.566692, 1.049259, -0.265307, -0.510564, 0.027472, -0.486900, 3.425820, 135.232437, -18.464996, 57.085388
1649447745.600026, 1.983746, -2.569876, 0.553509, 0.096060, 0.426759, 4.451756, 130.907272, -25.451859, 58.630035
1649447745.633357, 1.790414, -4.633379, 0.065841, -0.030722, 1.614964, 5.290542, 123.385483, -32.557678, 60.742920
1649447745.666690, 4.241029, -7.353192, -0.565032, -0.041511, 1.446410, 5.796578, 108.193893, -40.496597, 63.524902
1649447745.700021, 4.137330, -8.777293, 1.178695, -0.050684, 1.637327, 6.322601, 93.344635, -43.302032, 64.379074
1649447745.733363, 6.417209, -12.706627, 4.085256, -0.362765, 1.147192, 6.824846, 77.427643, -41.121780, 63.669418
1649447745.766686, 6.757335, -14.301913, 4.290709, 0.244383, 0.623382, 5.486774, 61.278580, -30.419479, 61.076294
