SamplingTime, AccelerationX, AccelerationY, AccelerationZ, GyroX, GyroY, GyroZ, MagneticFieldX, MagneticFieldY, MagneticFieldZ
1648228108.532053, 5.532252, 7.941866, -0.855478, -0.136362, 0.110190, -0.076446, 98.443954, 59.899109, 65.428040
1648228108.565375, 5.074959, 7.974936, -0.988506, -0.167405, 0.100510, -0.059245, 98.263687, 59.680832, 65.693268
1648228108.598702, 5.053711, 8.053197, -0.700753, -0.119509, 0.261282, -0.123660, 98.042160, 59.653763, 66.021820
1648228108.632094, 5.129128, 7.896227, -1.210867, 0.024271, 0.444742, -0.195305, 97.627182, 59.987656, 66.410065
1648228108.665363, 5.205144, 7.801207, -0.544980, 0.045928, 0.857471, -0.219300, 97.099365, 60.201721, 67.128860
1648228108.698698, 5.000290, 7.925107, -1.142333, -0.008204, 0.706993, -0.296424, 95.910065, 60.547928, 68.460846
1648228108.732084, 4.839280, 8.072051, -0.651821, -0.230926, 0.442419, -0.415375, 95.032669, 60.977875, 69.005722
1648228108.765373, 5.528511, 7.711424, -0.006883, -0.300475, 0.343325, -0.659292, 94.618851, 61.177429, 69.599289
1648228108.798716, 3.970335, 5.420473, 0.153379, -0.764147, 0.861470, -1.269136, 91.912033, 62.247696, 71.367081
1648228108.832093, 2.347964, 7.042993, -0.181660, -0.800504, 0.784199, -2.538895, 88.190430, 64.107162, 74.120941
1648228108.865375, 2.532168, 6.887819, 1.124078, -0.156694, 0.859557, -2.576125, 83.014069, 66.478195, 75.422241
1648228108.898709, 3.487304, 6.686257, 0.735618, -0.411618, 1.376146, -0.813673, 78.660141, 68.504684, 77.082382
1648228108.932036, 3.095403, 7.730578, 0.157419, -0.752132, 0.641916, 0.021612, 78.544586, 67.802353, 79.107620
1648228108.965375, 3.154211, 8.268076, 0.677858, -0.336395, 0.943419, -0.449033, 78.397659, 67.751831, 80.085373
1648228108.998705, 2.517353, 9.135675, 1.853561, -0.868823, 0.826604, -1.331205, 75.796539, 68.154373, 82.714233
1648228109.032033, 2.058565, 9.265860, 1.158794, -0.876924, 0.347759, -1.318138, 73.719086, 68.393997, 84.812576
1648228109.064460, 1.460613, 9.538948, 0.470760, -0.951668, 0.957844, -1.195814, 71.472244, 68.212112, 87.160583
1648228109.098760, 2.776526, 12.308142, 1.956661, -0.735226, 0.014849, -0.989923, 69.479996, 67.863007, 89.299255
1648228109.132088, 2.413056, 15.747413, -1.715445, -0.127362, 1.041009, -0.318426, 68.166138, 67.171371, 89.147964
1648228109.165262, 4.784213, 11.676821, -1.944990, 0.797400, 0.381887, 0.263224, 67.437042, 67.396240, 87.724762
1648228109.198328, 5.413290, 12.487408, -0.477194, 1.333978, 0.468380, 0.700578, 67.476227, 67.285675, 84.918167
1648228109.231280, 4.784064, 12.156858, -1.875408, 2.123964, -0.444473, 1.236296, 69.743942, 67.532791, 79.091293
1648228109.265369, 0.039654, 9.822362, -3.994875, 3.220002, -0.699894, 1.344281, 71.621933, 68.217239, 72.656204
1648228109.298702, 0.277278, 13.596671, -0.345813, 3.177700, -0.474482, 1.125399, 73.452286, 68.497147, 64.728973
1648228109.332038, 0.702100, 14.182054, 3.763535, 2.179587, 0.998419, 0.595827, 73.398392, 67.958405, 58.264023
1648228109.365375, -0.145897, 13.173496, 3.361609, 1.695424, 1.006573, -0.150058, 71.669113, 67.165695, 55.671646
1648228109.398712, 1.155651, 11.737125, -3.539378, 2.018295, -1.916898, 0.163896, 70.133133, 66.500168, 51.562515
1648228109.432048, 2.733430, 9.320926, -2.819172, 1.757854, -0.247430, 1.209812, 70.037018, 65.617874, 47.797226
1648228109.465524, 0.390704, 6.967875, 1.970727, 1.662469, -1.305750, 1.005912, 70.782913, 63.995316, 43.487961
1648228109.498224, 0.201711, 4.261380, 1.598728, 1.454443, -1.310580, 0.646417, 70.950607, 63.017792, 40.341675
1648228109.532049, -1.061080, 3.527407, 1.124826, 0.612091, -1.065493, 0.470359, 70.938522, 62.094452, 39.031235
1648228109.565372, -1.136198, 3.911228, 0.706738, -0.187449, -0.944024, 0.157256, 70.631317, 61.446808, 38.269333
1648228109.598712, -0.423026, 2.931999, 0.054318, -1.218850, -0.972048, -0.074335, 69.932861, 61.379578, 39.837204
1648228109.632039, 1.053748, 3.463512, -2.709488, -2.558729, 0.084245, -0.102794, 69.330215, 61.776428, 43.733887
1648228109.665370, 10.830770, 17.117794, -29.108405, 1.090484, 1.542812, 0.872236, 69.490646, 61.032883, 45.442673
1648228109.698720, 10.493936, 21.835269, -6.175095, 0.805194, -1.808058, 0.374754, 69.392105, 60.512329, 43.626221
1648228109.732045, 1.819743, 4.049194, -6.031443, 0.437531, -0.174311, 0.422443, 68.824646, 60.508270, 42.778976
1648228109.765369, -6.245125, 13.776536, -6.421099, 0.072219, 0.144002, -0.285559, 67.955032, 60.500214, 42.855759
1648228109.798703, -1.405097, 17.505355, 0.801160, -0.587298, -0.808509, -0.808299, 65.365631, 61.207275, 43.420013
1648228109.832042, 2.391807, 6.208464, 5.175217, -0.795140, 0.263661, -0.402643, 64.124207, 61.651138, 44.528961
1648228109.865366, -3.100641, 5.271134, 1.009306, -1.451571, 1.489086, -1.114947, 62.497955, 62.179932, 46.669998
1648228109.898702, 0.835876, 10.229975, 4.947917, -2.832855, 1.761736, -1.451653, 58.372940, 62.613586, 52.142227
1648228109.932044, 2.351106, 13.865271, -1.383250, -1.811520, 0.775065, -1.002640, 55.987366, 62.119339, 56.417526
1648228109.965379, 2.630031, 11.343129, -0.438887, -1.054052, -0.324781, -0.840710, 54.040237, 61.996765, 58.604630
1648228109.998706, -0.439486, 7.570017, -0.067786, -1.592539, -0.913970, -0.703362, 52.488632, 61.318924, 61.586288
1648228110.032082, -0.748487, 8.819640, -1.227777, -1.819749, 0.423035, -0.521338, 51.221710, 60.449814, 64.333069
1648228110.065373, 0.877774, 9.583540, -0.417938, -1.364181, 1.342329, -0.685618, 49.318008, 59.740341, 66.536545
1648228110.098716, 2.704700, 8.925434, 0.494702, -1.419425, 1.245260, -0.526233, 46.629974, 58.651230, 69.008545
1648228110.132061, 2.015020, 8.723723, 0.306458, -1.203732, 1.280814, -0.361939, 44.644897, 58.050049, 70.261215
1648228110.165443, -0.215329, 7.667132, 0.514155, -1.061332, 0.865275, -0.602415, 42.900757, 57.208481, 71.634949
1648228110.198712, 0.070030, 8.001871, 0.981024, -0.988758, 0.491399, -0.794914, 41.160004, 56.300110, 72.981262
1648228110.232091, 2.089091, 10.714352, -0.902913, -0.940990, 1.139439, -0.792201, 38.181091, 55.244308, 74.260559
1648228110.265377, 1.699883, 11.393706, -0.125845, -0.294618, 0.708572, -0.455895, 36.118256, 54.816330, 74.517075
1648228110.298705, 2.170194, 12.316073, -0.411653, -0.059800, 0.769436, -0.264088, 34.556458, 55.273224, 74.101166
1648228110.332038, 4.542549, 12.741043, -2.960879, 0.319265, 0.788164, -0.020037, 32.995911, 56.099472, 72.665726
1648228110.365372, 5.679196, 13.381343, -1.262492, 1.380709, 0.169993, 0.568883, 32.743027, 57.695251, 70.345779
1648228110.398718, 3.079991, 12.262353, -1.735048, 1.947648, -1.104278, 1.038828, 34.446732, 60.247940, 67.386093
1648228110.432039, 0.622044, 13.391668, 0.684293, 2.597329, -0.857071, 1.107797, 37.838486, 63.413208, 61.277405
1648228110.465375, -1.235258, 15.299398, 3.667917, 2.194726, -0.230206, 1.372372, 40.250916, 65.360153, 56.115875
1648228110.498719, -1.805078, 15.764322, 1.973720, 2.098721, -0.289524, 1.233359, 43.228897, 66.298065, 51.892685
1648228110.532045, -2.129942, 11.708993, -0.925359, 2.415601, 0.491507, 0.986890, 45.644958, 66.566910, 47.009048
1648228110.565389, -1.511489, 8.464251, 0.037858, 1.843288, -0.066191, 1.110595, 48.418793, 65.816101, 41.731903
1648228110.598707, -0.832434, 7.995436, 0.878822, 1.311725, -0.634807, 1.195697, 50.649048, 64.994888, 39.296143
1648228110.632055, 0.015862, 6.643012, 2.142661, 1.137008, -0.917933, 1.213382, 53.005371, 64.209869, 37.280411
1648228110.665395, -0.843208, 5.664382, 1.823933, 1.348618, -1.762432, 1.097889, 55.026291, 63.001007, 34.274551
1648228110.698717, -0.674267, 5.221155, 1.929427, 0.383596, -1.715691, 0.943761, 56.094345, 62.305161, 33.025070
1648228110.732091, -1.161786, 4.495862, 2.031929, -0.572128, -1.813177, 0.555908, 56.870712, 62.132309, 33.052582
1648228110.765401, -2.838326, 3.458574, 1.769165, -1.261991, -1.528469, 0.162149, 56.852997, 62.184509, 35.080002
1648228110.798710, -1.553837, 6.540360, -3.014749, -1.485152, -1.156116, 0.036764, 56.378983, 62.513580, 37.135284
1648228110.832054, 5.845144, 14.045135, -22.198739, 1.067594, -1.016705, 0.615015, 57.041229, 61.950668, 36.737946
1648228110.865379, 6.367379, 12.912079, -11.201123, 0.715137, -0.327124, 0.320754, 57.677063, 60.734100, 35.095398
1648228110.898712, 0.502633, 8.010999, -4.169652, 0.003144, 0.624160, 0.470587, 59.120316, 59.966919, 35.389038
1648228110.932119, -0.374842, 4.486584, -5.315726, -0.643046, -0.258890, -0.178336, 59.656281, 59.338898, 35.863281
1648228110.965423, 1.784279, 11.035025, 5.603330, -1.813079, -1.672349, -0.384269, 58.661804, 59.317505, 38.207932
1648228110.998004, 1.758391, 23.833978, -13.612084, -0.252982, 1.370961, -0.750676, 57.872299, 58.929352, 40.491928
1648228111.032048, -1.876156, 12.427403, 6.156540, 0.037709, 0.175620, -0.537356, 56.368927, 58.227371, 40.183701
1648228111.065415, -3.486257, 0.885256, 5.631462, -2.593124, 0.540329, 0.314945, 56.850571, 57.958298, 42.757004
1648228111.098717, -2.043152, 10.410887, 4.695927, -2.877080, 0.778461, -1.073687, 55.761902, 57.618027, 48.738281
1648228111.132041, 3.397971, 16.140959, -2.757671, -0.692912, -0.535198, -0.593874, 54.554443, 57.296722, 50.802917
1648228111.165388, 0.046537, 8.656535, 1.864634, -1.335779, -0.191529, -0.316740, 53.971542, 57.046539, 52.196915
1648228111.198740, -1.851915, 7.781305, 0.913986, -2.197360, 0.249430, -0.175005, 53.739853, 55.912537, 56.782944
1648228111.232061, -1.723975, 7.759907, -0.633117, -1.461788, 1.299702, -0.552332, 52.930206, 54.938721, 59.215530
1648228111.265450, 1.392677, 9.664494, 1.823334, -1.430022, 1.541680, -0.483824, 51.436722, 53.934174, 61.338440
1648228111.298716, 2.178724, 9.541492, -0.821660, -1.195347, 2.134631, -0.314521, 50.233109, 53.074783, 62.914246
1648228111.332046, 1.040281, 8.659378, 0.545130, -0.667705, 1.471396, -0.424517, 48.406250, 52.029816, 64.332932
1648228111.365382, -0.438139, 7.203704, 1.253514, -1.067618, 0.573963, -0.723065, 47.340012, 51.088379, 65.111450
1648228111.398715, 0.451457, 10.192715, -0.669479, -1.118115, 0.414501, -0.797140, 46.369919, 49.754974, 66.677322
1648228111.432076, 2.259378, 10.001329, -0.399532, -0.979086, 1.253741, -0.612287, 44.742874, 48.003723, 68.146027
1648228111.465394, 2.644845, 11.335198, -0.878223, -0.183891, 0.416983, -0.406396, 43.838577, 47.117188, 68.792465
1648228111.498782, 2.847155, 12.166884, -0.569670, -0.187244, 0.666956, -0.131929, 43.477905, 46.402847, 68.707581
1648228111.532058, 0.821211, 13.725659, -3.605518, 0.035786, 0.544261, -0.007637, 43.133942, 45.427689, 68.796051
1648228111.565393, 3.637391, 14.799907, -0.459238, 1.008464, 0.666090, 0.492338, 43.126419, 45.086304, 68.203918
1648228111.598727, 4.580706, 11.802666, -0.255731, 2.333820, -0.353617, 1.263067, 44.269958, 45.923798, 66.298172
1648228111.632082, -0.171185, 12.921806, -0.029479, 3.201020, -1.899441, 1.449881, 46.590134, 46.936707, 63.748062
1648228111.665430, -1.932420, 15.054441, 2.116923, 2.705597, -1.388824, 1.177841, 49.383255, 48.556641, 60.828308
1648228111.698773, -1.819294, 13.938892, 3.018340, 2.084169, 0.878032, 0.928175, 50.100815, 49.345535, 58.882599
1648228111.732049, -2.267758, 12.466608, 0.778265, 2.323823, 1.641329, 1.118351, 50.084152, 50.352325, 56.347351
1648228111.765413, -1.863736, 9.556755, 0.144849, 1.563438, -0.501432, 1.296668, 51.311050, 51.889771, 54.391373
1648228111.798091, 0.581641, 8.602815, 1.311274, 1.054534, -0.221308, 1.464597, 52.283234, 53.062164, 53.191788
1648228111.832059, 1.142034, 7.350648, 2.732233, 1.340896, -2.648261, 1.496066, 54.116959, 54.164978, 52.152954
1648228111.865386, 0.769287, 4.907066, 1.915062, 1.356907, -2.600780, 0.854697, 56.155045, 55.446640, 50.129974
1648228111.898727, -1.651700, 3.266739, 1.671153, 0.396849, -1.866156, 0.517381, 56.862366, 56.211700, 49.430893
1648228111.932053, -2.983325, 3.518728, 1.763180, -0.675143, -1.457864, 0.098961, 57.014084, 56.977432, 50.324905
1648228111.965387, -2.624195, 3.433884, 1.412280, -1.571480, -1.240042, -0.161285, 56.854523, 57.208710, 54.441345
1648228111.998719, -1.758541, 6.404489, -2.577657, -2.054744, -0.904628, -0.291041, 56.437637, 57.237076, 58.383896
1648228112.032047, 3.548955, 24.164228, -21.152023, 1.105304, -0.288368, 0.382128, 56.434616, 58.470291, 59.476196
1648228112.065388, 7.576152, 13.298743, -10.795006, 0.252473, -0.301029, 1.090359, 57.765106, 60.379822, 58.599655
1648228112.098737, 2.618808, 5.222352, -3.057246, 0.586952, 0.251187, 0.683177, 58.967712, 62.727722, 58.932617
1648228112.132052, 2.931101, 2.214786, -4.807258, -0.964845, 0.164613, -0.285161, 59.369476, 64.672714, 59.735641
1648228112.165387, -0.702549, 12.948890, 6.575226, -1.887713, -0.666922, -0.927728, 58.484650, 66.146271, 63.513702
1648228112.198727, -7.664288, 29.240983, -3.001880, 0.459140, -0.872623, -2.558741, 52.621826, 68.926834, 62.372284
1648228112.232071, -1.876456, 3.535637, 6.396559, -1.929135, -0.177377, -0.388819, 50.742813, 69.553940, 63.847382
1648228112.265386, -2.447772, 5.631761, 6.577171, -3.779409, 1.983238, 0.015779, 49.991318, 68.415344, 69.668091
1648228112.298722, -2.214038, 14.446014, 0.941520, -1.509972, 0.015289, -0.785414, 47.113007, 66.128159, 76.915741
1648228112.332073, 1.459266, 11.246313, -2.345869, -0.403788, -1.202998, -0.451635, 47.075470, 66.910873, 77.904861
1648228112.365392, 1.426196, 8.182633, 0.886453, -2.087676, -0.641192, -0.156066, 47.478806, 65.815842, 81.005783
1648228112.398750, 0.000599, 6.912060, -0.107589, -1.735960, 1.226499, -0.079868, 46.348602, 64.435425, 84.371735
1648228112.432070, 0.009876, 9.634567, 0.935235, -1.478960, 1.840887, -0.112933, 43.356552, 63.216705, 87.516937
1648228112.465427, 0.733673, 9.548226, -0.678158, -1.405128, 1.870725, -0.132857, 40.653305, 62.244781, 89.294342
1648228112.498740, 0.161309, 8.670003, 0.151433, -0.778962, 1.468705, -0.282203, 38.047852, 62.065109, 90.143890
1648228112.532071, -0.596755, 6.437859, 2.406622, -1.116928, 0.452046, -0.564864, 35.566940, 61.469162, 92.010559
1648228112.565182, -1.061380, 9.803957, -0.342072, -1.020879, 0.237542, -0.611199, 33.772049, 60.857254, 94.371109
1648228112.598771, 0.306159, 10.486603, -1.765424, -1.063952, 0.908990, -0.528929, 31.811188, 60.102036, 96.129044
1648228112.632074, 1.176900, 12.454487, -0.948702, -0.245310, 0.658867, -0.534167, 28.504379, 60.250717, 97.274536
1648228112.665398, 3.454983, 13.717129, 1.487697, -0.114945, 1.074168, -0.073238, 26.621918, 61.509308, 96.709137
1648228112.698760, -0.061351, 14.009521, -4.980089, 0.373566, 0.500143, 0.176039, 25.604752, 63.432602, 96.228516
1648228112.732136, 3.363105, 15.070901, 1.069310, 1.927925, 0.562979, 0.513939, 25.184128, 68.448227, 91.436646
1648228112.765395, 2.378490, 11.778125, 0.141856, 2.820208, -0.503282, 0.839225, 27.123489, 73.537582, 86.314835
1648228112.798741, -2.452111, 11.958888, 2.646042, 3.069973, -1.730519, 0.807234, 31.092636, 78.461151, 80.400116
1648228112.832060, -1.509395, 14.463522, 1.499219, 2.381432, -0.571322, 0.917134, 34.267746, 81.804993, 74.797226
1648228112.865425, -0.087688, 13.184569, 0.917279, 2.473283, 0.328229, 1.275160, 38.032745, 84.584473, 66.940948
1648228112.898733, -3.199851, 12.571354, 0.995689, 2.165333, 1.666467, 1.126051, 40.417023, 85.852066, 60.026291
1648228112.932061, -1.983147, 9.236830, 1.805976, 0.892580, -0.561245, 1.031512, 42.714981, 86.504700, 57.164734
1648228112.965413, -1.291073, 7.804349, 0.783652, 1.345723, -0.735607, 0.990027, 46.332916, 86.672485, 53.134689
1648228112.998726, -0.472107, 6.157737, 1.997363, 1.601287, -1.729570, 1.176588, 49.285812, 87.127060, 49.129440
1648228113.032064, -0.940921, 4.022259, 1.891719, 1.633582, -1.791897, 0.843782, 51.880585, 87.432861, 45.387756
1648228113.065394, -1.973720, 3.381062, 1.731606, 0.299111, -1.447792, 0.283380, 53.514923, 88.140625, 42.681458
1648228113.098765, -2.636914, 2.758420, 1.716194, -0.433524, -1.192773, -0.013366, 53.621948, 88.894745, 42.875824
1648228113.132059, -2.217929, 4.346673, 0.351050, -1.207019, -1.119106, -0.298093, 53.298615, 89.974747, 45.158661
1648228113.165394, -0.244059, 9.254338, -9.632771, 0.051244, -0.478722, 0.076037, 52.561951, 91.688614, 47.490173
1648228113.198816, 4.102614, 19.076550, -15.005509, 0.726829, -1.030343, 0.511787, 54.158447, 93.140884, 44.818237
1648228113.232065, 2.813337, 14.075960, -5.125537, 0.534585, -0.009876, 0.790881, 56.253403, 93.476456, 42.122894
1648228113.265406, 1.019481, 4.197036, -3.960159, 0.189728, -0.164969, 0.727286, 58.787155, 93.688416, 39.933945
1648228113.298749, 0.637007, 4.855740, -7.039252, -1.064257, -0.477293, -0.205325, 59.529938, 94.181946, 40.194656
1648228113.332075, 0.415843, 15.831509, 4.768202, -0.797346, -1.560565, -0.552566, 58.785690, 94.848038, 41.723587
1648228113.364560, -6.258294, 15.320048, 0.992097, 1.237257, -0.684175, -1.742571, 54.574249, 94.595901, 38.074310
1648228113.398740, -4.432266, 2.535310, 2.842067, -2.225644, 1.175155, -0.084329, 52.807449, 94.852936, 40.055893
1648228113.432063, -1.584662, 8.013094, 7.426963, -3.914975, 2.987179, -0.643284, 51.809372, 95.051254, 48.553528
1648228113.465462, 0.086042, 16.807745, -2.185607, -2.603787, 1.397136, -0.243443, 50.081573, 94.803452, 55.939560
1648228113.498812, 0.135871, 11.734282, 1.042525, -0.977310, -0.680889, -0.198775, 50.053360, 94.429184, 57.736237
1648228113.532116, 0.644190, 7.334188, 0.767641, -1.958597, -1.388649, -0.316881, 49.887054, 93.120819, 62.579468
1648228113.565409, -0.308553, 7.753622, -1.122581, -2.100411, 0.797671, -0.204350, 49.341110, 92.019638, 67.550690
1648228113.598745, -0.402076, 8.757690, 0.281468, -1.854919, 2.120721, -0.250601, 47.602966, 90.683334, 71.798325
1648228113.632078, -0.113575, 8.763975, 0.131531, -1.509313, 1.559768, -0.330335, 44.643250, 89.192535, 75.911331
1648228113.665423, 1.774552, 8.471733, -0.424821, -1.330692, 1.463524, -0.445301, 42.680862, 88.115585, 78.099182
1648228113.698734, 2.238279, 8.195502, 0.795025, -1.139608, 1.672609, -0.275299, 40.717834, 86.994705, 79.592194
1648228113.732066, -1.009904, 7.549067, 1.438915, -1.550313, -0.071701, -0.675706, 38.450607, 85.275055, 82.858124
1648228113.765455, 0.837971, 11.141417, -3.124284, -1.180780, 0.620213, -0.602849, 37.251801, 83.857132, 85.376495
1648228113.798734, 2.801665, 12.691364, -1.533187, -0.337302, 1.328523, -0.319602, 35.234619, 83.566238, 84.945877
1648228113.832087, 1.860594, 13.365182, -0.176722, 0.107804, 0.831925, -0.087204, 34.653320, 83.351639, 83.356171
1648228113.865399, 0.043694, 12.652907, -4.309114, 0.557437, 1.230379, 0.134001, 34.276993, 83.663361, 80.529968
1648228113.898750, 4.126407, 13.847763, -2.548478, 1.938175, 0.574028, 0.569641, 35.522934, 84.727112, 75.136139
1648228113.932113, 4.540903, 11.553519, -1.001225, 3.094461, -0.656512, 1.092694, 38.720947, 85.984344, 68.246216
1648228113.965399, -0.753126, 16.719907, 3.718794, 3.037200, -1.814159, 1.142571, 43.970657, 86.830566, 58.130569
1648228113.998737, -1.849970, 18.025645, 3.104531, 2.422453, -0.341823, 1.223556, 47.201172, 85.545609, 51.889740
1648228114.032068, -3.472490, 15.637728, 1.366341, 2.505657, 0.482864, 0.976574, 50.052673, 84.032623, 46.481903
1648228114.065413, -3.655198, 12.091766, 0.570419, 1.973269, 0.261018, 0.844923, 51.738205, 81.588837, 39.563065
1648228114.098734, 0.246303, 7.307852, -0.307954, 1.219031, -0.727878, 1.368422, 53.620544, 79.706207, 37.147522
1648228114.132068, 0.312443, 7.245752, 2.035969, 1.325268, -0.514608, 1.144093, 55.788040, 78.064743, 34.580093
1648228114.165402, -0.838569, 5.539883, 2.786402, 1.890960, -2.291323, 0.850306, 56.963211, 75.796463, 30.715286
1648228114.198733, -0.546177, 3.047519, 2.785055, 1.835904, -2.356139, 0.543047, 56.504578, 74.238907, 26.930145
1648228114.232104, -2.554164, 2.610428, 2.522441, 0.135155, -1.913381, -0.036353, 55.345322, 73.029190, 25.473740
1648228114.265417, -3.151667, 2.727145, 2.027141, -1.048379, -1.639995, -0.137923, 54.102097, 72.784805, 26.730453
1648228114.298745, -2.337190, 3.791069, -0.512359, -2.163768, -1.335721, -0.240350, 52.573990, 73.632950, 31.386627
1648228114.332107, -0.284311, 11.403433, -17.253216, -0.764616, -0.410307, 0.081284, 52.105484, 73.946335, 34.068405
1648228114.365428, 2.910002, 27.809400, -16.788890, 1.430345, -1.334480, 0.253209, 51.723373, 72.894623, 31.258835
1648228114.398757, -1.747468, 6.020370, -4.526538, 0.042595, 2.826971, 0.914234, 53.402237, 72.133804, 30.898117
1648228114.432076, -1.866579, 3.030311, -7.187842, -0.258833, 1.339557, 0.372938, 54.555939, 72.039993, 31.440201
1648228114.465344, 3.271527, 17.663971, 4.549133, -0.965071, -1.207314, -1.090822, 52.955109, 72.706268, 35.347626
1648228114.498268, -1.001674, 17.980155, 4.878485, 1.167599, 0.687599, -2.074017, 47.909561, 71.633026, 33.784073
1648228114.532149, -2.179621, 0.961871, 1.361852, -1.447775, -1.373411, 0.161543, 46.497375, 71.736130, 36.178421
1648228114.565418, -1.610550, 8.342895, 8.936058, -4.378766, 2.191392, -0.671465, 46.359634, 72.392426, 42.686127
1648228114.598763, -0.473004, 15.558121, -0.181959, -2.178822, 1.801714, -0.452030, 44.492401, 72.204346, 50.009750
1648228114.632076, -0.541987, 10.561871, 1.001375, -0.299551, -0.503827, -0.309606, 43.598709, 71.762909, 51.771500
1648228114.665209, 0.563535, 6.594679, 1.670704, -2.117474, -2.054569, -0.340933, 42.884247, 71.041382, 55.308563
1648228114.698809, -0.560393, 6.514772, -2.249352, -2.018038, 0.594513, -0.127759, 42.679459, 70.204102, 59.898773
1648228114.732092, -0.292093, 9.468619, 0.120758, -1.975810, 1.443673, -0.339841, 41.215363, 68.600510, 64.301636
1648228114.765420, 0.448015, 8.662820, -0.761655, -1.565077, 1.212345, -0.340942, 39.528061, 67.457047, 66.850098
1648228114.798738, 1.020528, 7.463026, 0.615609, -1.111278, 1.067387, -0.339209, 38.097763, 66.578629, 68.597473
1648228114.832078, -1.013795, 7.847594, 1.867627, -1.315080, 0.608173, -0.467989, 36.294220, 65.037476, 70.855972
1648228114.865418, -2.638410, 10.515932, 0.262165, -1.493662, -0.058286, -0.744591, 35.017990, 63.461670, 73.733795
1648228114.898739, 0.922815, 11.138724, -3.282301, -0.768589, 1.589020, -0.424122, 33.311264, 62.289902, 74.786789
1648228114.932081, 1.158794, 13.182923, 0.949002, -0.174380, 0.933420, -0.456587, 30.915451, 61.362991, 74.282120
1648228114.965427, 3.756203, 12.927043, 0.376039, -0.215500, 0.527945, -0.250805, 29.970200, 60.733780, 74.070297
1648228114.998742, 5.607071, 16.058659, -4.837484, 1.146120, 0.537298, 0.548970, 29.930679, 60.868622, 73.265625
1648228115.032097, 3.400515, 13.480104, -0.159214, 2.120358, -0.342106, 1.027003, 30.968430, 62.086624, 70.721680
1648228115.065419, -0.111630, 12.820950, 1.095796, 2.878893, -1.299904, 1.407794, 35.108017, 64.602219, 65.480469
1648228115.098745, -2.633023, 15.765519, 4.001908, 2.543148, -0.142582, 1.378550, 37.595840, 65.849014, 61.702866
1648228115.132166, -3.535338, 16.972196, 2.182614, 2.843715, -0.300750, 1.374418, 40.172058, 66.629776, 57.766632
1648228115.165413, -6.127510, 12.233772, -1.079785, 3.061779, 0.215755, 0.584258, 41.894821, 67.402954, 51.606934
1648228115.198745, -4.447678, 8.837597, 2.675371, 2.082434, -0.054067, 0.438255, 42.523010, 67.208435, 48.651001
1648228115.232082, -0.919673, 7.259519, 1.663671, 1.304976, 1.483223, 1.169954, 43.734558, 67.442001, 46.306931
1648228115.265419, 1.603965, 7.136816, 2.295291, 2.079799, -0.652871, 1.483240, 46.723373, 67.582657, 43.262619
1648228115.298755, 1.036839, 5.467010, 2.708590, 2.634594, -2.533893, 1.180227, 48.397461, 67.725418, 39.733078
1648228115.332084, 0.207398, 3.112462, 2.596961, 0.710571, -2.373777, 0.626952, 49.326843, 67.625885, 38.274857
1648228115.365414, -2.853589, 0.839766, 2.751387, -0.540850, -1.586505, 0.374994, 49.814713, 67.802612, 39.142319
1648228115.398745, -2.684648, 1.217900, 1.783830, -1.771595, -1.114123, -0.057101, 50.004684, 68.444107, 43.429596
1648228115.432081, -1.442207, 4.447678, -1.608455, -2.794825, -0.799933, 0.174016, 50.507324, 68.500504, 49.046814
1648228115.465434, -1.794305, 18.054525, -30.032417, 1.917447, -0.313312, -0.272351, 50.618729, 68.971283, 50.891724
1648228115.498767, 6.458060, 19.634549, -4.678120, 0.720748, -0.741129, 0.938748, 51.971970, 70.045349, 48.590332
1648228115.532152, -1.292270, -0.218770, -6.152799, 0.351404, 0.622627, 0.288726, 53.925644, 71.109314, 48.411407
1648228115.565425, 0.104896, 8.270919, -2.004845, -1.887920, -1.365314, -0.293124, 53.357681, 72.026001, 50.517960
1648228115.598768, -0.059556, 20.450223, -0.249296, -0.204949, 0.866826, -1.159424, 51.998688, 72.897568, 53.282944
1648228115.632154, -4.312406, 9.568876, 3.424457, 0.118066, -2.033854, -0.622462, 49.781281, 73.768921, 52.112320
1648228115.665509, -5.203049, 3.141342, 5.747431, -2.691156, 1.880238, -0.402178, 49.205811, 74.001831, 54.713623
1648228115.698760, -2.412607, 11.663952, 5.259014, -4.149451, 1.896228, -0.560486, 46.644012, 72.896210, 64.779755
1648228115.732100, 0.363619, 15.304336, -4.013131, -2.227127, 0.791440, 0.142241, 46.241791, 71.387634, 69.661392
1648228115.765481, 0.268599, 9.009830, 1.532738, -1.405358, -0.817313, -0.395795, 45.987579, 71.210434, 72.164093
1648228115.798765, 1.355866, 5.411943, -0.030376, -2.058411, -0.496047, -0.213462, 46.325272, 69.871887, 76.166107
1648228115.832107, -0.497844, 7.634062, -0.659603, -1.835327, 1.214393, -0.154857, 45.206772, 67.829178, 80.678116
1648228115.865437, 0.173131, 10.177751, -0.406565, -1.715533, 1.407314, -0.189525, 43.374237, 66.468658, 84.034241
1648228115.898763, 1.191115, 9.096769, -1.133654, -1.089468, 1.902362, -0.100867, 41.393082, 65.260422, 85.927246
1648228115.932085, -0.173729, 7.504326, 2.653973, -1.127565, 1.004240, -0.309738, 39.008453, 64.193954, 88.609238
1648228115.965423, -2.814534, 8.178144, 1.068263, -1.591690, 0.009410, -0.727044, 38.072754, 62.804764, 91.667587
1648228115.997854, -0.597353, 10.111911, -2.466327, -1.289422, 1.097160, -0.626399, 36.266327, 60.990677, 94.012054
1648228116.032086, 2.347814, 12.030564, -0.705242, -0.630165, 1.389872, -0.387100, 32.848267, 60.468796, 95.667160
1648228116.065418, 3.280804, 12.557288, -0.064793, -0.158080, 0.501473, -0.140092, 32.035431, 60.748688, 96.043167
1648228116.098763, 1.271321, 13.508086, -0.965163, 0.077594, 0.930736, 0.149200, 31.009888, 62.097015, 95.975357
1648228116.132093, 1.254113, 14.586973, -1.981950, 1.465827, 0.630024, 0.530735, 31.255615, 64.806381, 94.481110
1648228116.165432, 2.861969, 13.289016, -1.982100, 2.599525, -0.091354, 0.974776, 34.311386, 72.044205, 88.805267
1648228116.197843, -0.443077, 13.122470, 1.475726, 3.162885, -0.709663, 0.990620, 38.048965, 77.556610, 82.270813
1648228116.232090, -2.556558, 16.607829, 3.597138, 2.751724, -0.184102, 1.387203, 42.204315, 82.058975, 74.569077
1648228116.265439, -3.772214, 16.058808, 1.679682, 2.527611, -0.285947, 1.402094, 48.227661, 85.432831, 64.686569
1648228116.298754, -5.050868, 13.309966, -0.093075, 2.439829, 1.221126, 0.548133, 50.720535, 85.950348, 56.803757
1648228116.332081, -0.903811, 7.316680, 1.041627, 1.524223, 0.172314, 1.024939, 53.104095, 85.766983, 50.905533
1648228116.365422, -0.654515, 7.082797, 1.826177, 1.458585, 0.205957, 1.105313, 57.459946, 84.396774, 45.011612
1648228116.398752, -0.291045, 5.539584, 2.937685, 2.537037, -1.844651, 0.833429, 59.851120, 83.010223, 38.973495
1648228116.432100, -0.284611, 3.847931, 2.394052, 2.100432, -2.111124, 0.715902, 61.303360, 81.455856, 32.557449
1648228116.465421, -2.241422, 1.973421, 2.162114, 0.799264, -1.742579, 0.543298, 62.657852, 79.807266, 28.385132
1648228116.498839, -2.437896, 1.488146, 2.441338, -1.001595, -0.737119, 0.093429, 63.505325, 79.342285, 27.975677
1648228116.532089, -1.038934, 2.945317, 1.466897, -2.018659, -0.673625, -0.116800, 64.129745, 80.192505, 30.836990
1648228116.565417, -0.591368, 9.613468, -16.471958, -1.091860, -0.672023, 0.032335, 64.850876, 81.010620, 33.813522
1648228116.598795, 1.068562, 29.141474, -16.780361, 0.993718, -1.415727, -0.355357, 65.641876, 79.414307, 29.889267
1648228116.632140, 1.782782, 8.778191, -8.266879, 0.046680, 0.886516, 0.681027, 67.016632, 77.866119, 28.952164
1648228116.665430, -3.001431, 5.152621, -6.183325, 0.105156, 0.278434, -0.186478, 68.036285, 76.651489, 28.240280
1648228116.698755, -0.215179, 13.169007, 6.512977, -1.498885, -0.903321, -0.105220, 67.763153, 76.374344, 30.113327
1648228116.732089, -5.178060, 20.813992, -7.760505, 0.502292, 0.779996, -1.995369, 65.090912, 76.253998, 31.276245
1648228116.765431, -0.336685, 3.975273, 6.022016, -1.157089, -0.247668, -0.369206, 62.161667, 76.515198, 31.418472
1648228116.798769, -0.145747, 6.351667, 6.402395, -3.588012, 1.063295, 0.014329, 62.587692, 77.384155, 40.257309
1648228116.832153, 2.097620, 15.907225, 3.398869, -2.681271, 1.862342, 0.500238, 63.341782, 77.270630, 48.231552
1648228116.865416, 1.428889, 12.331785, -3.396474, -0.565260, 0.399764, -0.109485, 63.910416, 76.608505, 50.635925
1648228116.898767, 1.091906, 7.389404, 1.830666, -1.696343, -1.885411, -0.280582, 63.232727, 76.432938, 52.139786
1648228116.932177, -1.733701, 6.641515, -1.258003, -1.791004, 1.390666, 0.193641, 63.713867, 75.270477, 58.005646
1648228116.965479, -2.758719, 8.345588, -0.843956, -1.551649, 2.340326, 0.058666, 63.124435, 74.390564, 61.248932
1648228116.998801, 0.507271, 9.507375, -1.060631, -1.528436, 2.375725, -0.032612, 62.109360, 73.472305, 65.111938
1648228117.032180, 1.716942, 8.137742, 1.688960, -0.864035, 2.450233, -0.022119, 60.299957, 72.866257, 68.364944
1648228117.065477, -0.095768, 5.627421, 2.418742, -0.941456, 0.358435, -0.677468, 58.971848, 72.318741, 69.709381
1648228117.097878, -1.886930, 10.443657, -1.810316, -1.016882, 0.728030, -0.703764, 57.838226, 71.869537, 71.951340
1648228117.132121, 2.263269, 10.358513, 1.152060, -1.174170, 1.825525, -0.519070, 55.322296, 71.214920, 74.426926
1648228117.165432, 2.195034, 10.976816, -0.217573, -0.630660, 0.738183, -0.308655, 53.997818, 70.790268, 76.237167
1648228117.198764, 1.244386, 13.368773, -1.090260, -0.345747, 1.184948, -0.285180, 53.194962, 70.704971, 76.516006
1648228117.232131, 1.415871, 13.591883, -4.691588, 0.114250, 1.129387, -0.122505, 51.805847, 70.927567, 76.046844
1648228117.265432, 6.641066, 15.379454, -3.493739, 1.914521, 0.391671, 0.788395, 52.450958, 73.179764, 70.968643
1648228117.298801, 3.334375, 12.838607, 0.424672, 2.980844, -0.842967, 1.070649, 55.329163, 74.417419, 64.310074
1648228117.332151, -3.052906, 16.634165, 2.788796, 3.312032, -1.265175, 0.915368, 58.187485, 75.027863, 55.498444
1648228117.365428, -2.875137, 17.553838, 4.557512, 2.738148, -0.996883, 1.071231, 60.654877, 73.198654, 45.118454
1648228117.398768, -3.520374, 15.758336, -0.597802, 3.135986, 0.443471, 0.761298, 61.537354, 69.957245, 37.715439
1648228117.432097, -2.756325, 8.813804, -0.350152, 2.456106, 1.153514, 0.527010, 61.842865, 66.031082, 31.352478
1648228117.465429, -0.113425, 7.742549, 2.481440, 1.293202, -0.658016, 0.953658, 61.750565, 61.566666, 26.967361
1648228117.498809, -0.080206, 7.153875, 1.791761, 1.552137, -0.272857, 0.968324, 61.934296, 57.798065, 24.372284
1648228117.532095, -0.378583, 5.303306, 2.970306, 2.085481, -2.207314, 0.599729, 60.722031, 54.268555, 20.995331
1648228117.565208, -0.419285, 3.695899, 2.892645, 1.958280, -2.445468, 0.479256, 58.607635, 50.612411, 17.969788
1648228117.598783, -1.978209, 2.335244, 3.506009, 0.051638, -2.038889, 0.402250, 55.877136, 47.582016, 16.769485
1648228117.632101, -2.992004, 2.331952, 1.842488, -1.274123, -1.613750, 0.325990, 54.613708, 46.805222, 17.742279
1648228117.665433, -1.393575, 4.811747, -2.502539, -1.938608, -1.131566, 0.338436, 53.816696, 47.226776, 19.356140
1648228117.698820, 0.598102, 18.467525, -27.924921, 1.203860, -1.786962, 0.113858, 52.518539, 44.693100, 18.728882
1648228117.732100, 0.857274, 13.214347, -9.055020, 1.327899, -0.362684, 0.510958, 50.124207, 41.396652, 17.947556
1648228117.765438, -3.132214, 0.351050, -4.982483, 0.290370, 1.393161, 0.466450, 50.081161, 38.889893, 18.943146
1648228117.798780, 0.673668, 0.300173, -5.253776, -1.482845, 0.558644, -0.551985, 48.674744, 36.851257, 21.164001
1648228117.832119, -2.239027, 11.909358, 9.610625, -1.760626, -2.758525, -0.637005, 45.353455, 36.021255, 24.121155
1648228117.865431, -4.201225, 29.763518, -0.375740, -0.328766, 1.368225, -1.670406, 43.584244, 34.243607, 25.879547
1648228117.898777, -1.111957, 5.661389, 5.438130, -0.184938, -0.262775, 0.050183, 42.651810, 32.450363, 27.061462
1648228117.932109, -2.252794, 4.186561, 5.296872, -2.807580, 0.505197, 0.052729, 42.007782, 32.398117, 29.225754
1648228117.965437, -1.383250, 13.634230, 4.412663, -4.100957, 1.212528, 0.013977, 42.167130, 33.289276, 32.540482
1648228117.998866, -0.076614, 14.921413, -4.594922, -1.059816, 1.098453, -0.081918, 42.454498, 33.612823, 34.034393
1648228118.032101, 0.582240, 9.138219, 2.599355, -1.689856, -0.946327, -0.308647, 41.688171, 33.216309, 36.183731
1648228118.065437, -0.478541, 5.620987, -0.725443, -2.359679, 0.150926, -0.153998, 40.881302, 33.090179, 38.738342
1648228118.098774, -1.007660, 6.338499, -1.651999, -2.300348, 1.473623, -0.250161, 40.546585, 32.679657, 40.705719
1648228118.132099, 0.789937, 9.961226, -0.646434, -1.868076, 1.646997, -0.279728, 40.208435, 31.691299, 42.177307
1648228118.165435, 2.322974, 9.071181, -0.369006, -1.331358, 1.976724, -0.233658, 39.510986, 30.773300, 42.666122
1648228118.198768, 0.314389, 7.316980, 1.120486, -1.098315, 1.126316, -0.283260, 38.905914, 29.543610, 42.711365
1648228118.232099, -1.356016, 9.517101, 0.156671, -1.495129, -0.329519, -0.703416, 37.621078, 27.709915, 44.444763
1648228118.265474, 1.710059, 10.883741, -3.749619, -0.910758, 0.823852, -0.451561, 36.513763, 26.335800, 45.238113
1648228118.298785, 1.225532, 10.872968, 1.052701, -0.365534, 0.941676, -0.236514, 35.660034, 24.655930, 45.310303
1648228118.332112, 2.293047, 13.570934, 0.632817, -0.330398, 0.313985, -0.176147, 34.750717, 22.805527, 46.057678
1648228118.365450, 0.419285, 14.766837, -4.490475, 0.363613, 0.594737, -0.012791, 33.112152, 20.798172, 46.991028
1648228118.398790, 4.233846, 15.094394, -0.972944, 1.530762, 0.508878, 0.635017, 31.661453, 19.936264, 47.509109
1648228118.432112, 4.969166, 12.372935, -1.217152, 3.482909, -0.928479, 1.343324, 30.275574, 19.694717, 48.441132
1648228118.465439, -1.810166, 14.863802, 4.559159, 2.913059, -2.591755, 1.092853, 28.998459, 20.990143, 51.420959
1648228118.498847, -3.164087, 16.732327, 2.547730, 2.707860, -0.950992, 1.280072, 28.799774, 23.657455, 53.190201
1648228118.531209, -4.109647, 14.997429, 0.680103, 2.768803, 0.851395, 0.791483, 28.562698, 26.383972, 52.878906
1648228118.565432, -3.132214, 11.381287, 1.413477, 1.894186, -0.407986, 0.906310, 28.532898, 30.122803, 51.585281
1648228118.598785, -1.025317, 7.787141, -0.079607, 1.706586, 0.669043, 1.412542, 29.167297, 33.074722, 50.889771
1648228118.632099, 0.143054, 6.889764, 2.819172, 1.494395, -0.291020, 1.157259, 29.859024, 35.618576, 49.854660
1648228118.665438, 0.321571, 5.367351, 3.138200, 2.651818, -2.932926, 0.609391, 31.219452, 38.340225, 50.361649
1648228118.698784, -0.740706, 2.645443, 2.555511, 2.045121, -2.730243, 0.234295, 31.553787, 39.624939, 49.660995
1648228118.732119, -2.833687, 2.841319, 2.315343, 0.456686, -1.901628, 0.071201, 31.657333, 40.397568, 50.399460
1648228118.765448, -3.285443, 1.795502, 2.058565, -1.129195, -0.916315, 0.130366, 31.653030, 40.771301, 51.778320
1648228118.798772, -3.041534, 2.743007, 0.697760, -2.530352, -0.614066, 0.011360, 31.568527, 40.509232, 56.194809
1648228118.832101, -0.829890, 12.557588, -23.659202, -0.487224, 0.256503, 0.146964, 31.722458, 40.187851, 58.476105
1648228118.865440, 5.224747, 31.075092, -17.193810, 1.324082, -2.010895, 0.465333, 31.915359, 41.447815, 58.590820
1648228118.898771, 1.168221, 5.117456, -5.067926, -0.215684, 1.751861, 1.216902, 33.494736, 43.569290, 57.450119
1648228118.932136, -0.711228, 1.416320, -6.780229, -1.397039, 0.498447, -0.001470, 33.498856, 44.342300, 58.462219
1648228118.965496, 0.708384, 18.302475, 7.697059, -1.284141, -1.911993, -1.277696, 33.096619, 43.927795, 61.794556
1648228118.998806, -3.477279, 23.836821, -0.663343, 1.359421, -0.725036, -1.140679, 31.542603, 44.268555, 60.424133
1648228119.032115, -5.464616, 2.648436, 6.416610, -1.410772, 0.073660, -0.203774, 31.388367, 44.205078, 61.706909
1648228119.065465, -2.540996, 8.335413, 7.826496, -3.927485, 3.253111, -0.007793, 30.015167, 43.032761, 63.847382
1648228119.098791, -2.713528, 14.044387, 2.898331, -2.966720, 1.351737, 0.099235, 28.694199, 40.876602, 66.609116
1648228119.132129, 1.546804, 10.828525, 0.031125, -0.852429, -0.585411, -0.201127, 28.538895, 40.008041, 68.564285
1648228119.165448, 3.016245, 7.458986, 1.340903, -2.018794, -0.807905, -0.253004, 29.069748, 39.121292, 71.171906
1648228119.198812, 1.300650, 6.549488, -1.757344, -2.176861, 1.790085, -0.057523, 28.168076, 37.344833, 73.021301
1648228119.232140, -0.577601, 8.268974, -0.988506, -2.035346, 1.656991, -0.090451, 26.188431, 35.418579, 73.854202
1648228119.265443, 1.608904, 8.445995, 0.177769, -1.703253, 2.248820, -0.186877, 24.126190, 33.906174, 74.029373
1648228119.298776, 1.451185, 7.845948, 2.303671, -1.342311, 1.312130, -0.343300, 21.952927, 32.747711, 73.190262
1648228119.332116, -0.574010, 8.001721, -1.038335, -1.573101, -0.620956, -0.651748, 21.099472, 30.967239, 75.173141
1648228119.365446, 2.464980, 11.754632, -2.827253, -1.151051, 0.544863, -0.572062, 20.325439, 29.564636, 76.123901
1648228119.398857, -0.150835, 10.839898, -1.302595, -0.725923, 1.274047, -0.335236, 18.568497, 29.058792, 76.364258
1648228119.432158, -0.162656, 12.292729, -1.755099, 0.016627, 0.280201, -0.361479, 17.256607, 29.289749, 76.348694
1648228119.465445, 2.006940, 12.733262, 0.553061, -0.118949, 1.360541, 0.075984, 15.832962, 30.333130, 75.418274
1648228119.498303, 0.786346, 15.545402, -3.314473, 0.901593, 0.296607, 0.302031, 15.336395, 32.490707, 74.597809
1648228119.532107, 4.721366, 13.382540, -1.418415, 2.907249, -0.001505, 1.087659, 15.740280, 36.557083, 72.809280
1648228119.565440, -0.988805, 14.902559, 3.287239, 2.997463, -1.853693, 1.103345, 18.476898, 43.469940, 69.676926
1648228119.598787, -0.163704, 16.958130, 4.517410, 2.889870, -1.383582, 1.170074, 21.089203, 47.812256, 67.316620
1648228119.632132, -3.333926, 15.564855, 2.740762, 2.549770, -0.421427, 0.965755, 23.390732, 51.591919, 63.889999
1648228119.665529, -4.093486, 13.862128, 1.185429, 2.204590, 0.121750, 0.691969, 25.746719, 54.995743, 59.182373
1648228119.698514, -2.431611, 7.568969, -0.086939, 2.101454, -0.170402, 0.873004, 27.576324, 57.006485, 55.504272
1648228119.732141, -1.083825, 7.359776, 2.781314, 1.430353, -0.166798, 0.931096, 29.645508, 58.836655, 52.392136
1648228119.765517, 0.221763, 5.844546, 3.307590, 1.742498, -1.485876, 0.735553, 31.933121, 60.585617, 49.540146
1648228119.798783, 0.354641, 3.221099, 2.575712, 2.373958, -2.070223, 0.367454, 33.324173, 61.543381, 46.889633
1648228119.832115, -1.241992, 2.182464, 2.542642, 0.763515, -1.680521, 0.051838, 33.488724, 62.000046, 45.329727
1648228119.865532, -3.573047, 1.794903, 2.223166, -0.641329, -1.543941, -0.198885, 33.412628, 62.547607, 45.883606
1648228119.898782, -0.690578, 3.708319, 0.209642, -1.594792, -1.923856, 0.093316, 33.449493, 63.120529, 49.939850
1648228119.932130, -1.376067, 9.503484, -17.113753, -0.797392, -0.167958, 0.549196, 34.203323, 63.791153, 52.239883
1648228119.965458, 4.511873, 30.546871, -21.380819, 1.527226, -2.675761, 0.289082, 34.755203, 64.628189, 50.414978
1648228119.998196, -1.928230, 4.708646, -5.681889, 0.564710, 1.247968, 1.207541, 37.675797, 66.364563, 47.275009
1648228120.032135, -1.694047, -1.226729, -8.756044, 0.114320, 0.576591, 0.346403, 38.810196, 67.077728, 46.104736
1648228120.065469, -1.407791, 11.732336, 7.686435, -2.582390, -2.848381, -0.441276, 39.135300, 67.369965, 48.959351
1648228120.098929, -2.949656, 26.175657, -8.557625, 0.907537, 2.579388, -1.847639, 36.483551, 67.057312, 49.687180
1648228120.132127, -2.501193, 6.840384, 4.362086, 0.490614, -1.619413, -1.022409, 34.291901, 66.194199, 48.420959
1648228120.165458, -2.869151, 3.575591, 6.464494, -3.528993, 2.022829, 0.190989, 34.687637, 66.401245, 51.711288
1648228120.198782, -2.674623, 10.870124, 6.703016, -4.596302, 2.277998, -0.113804, 34.063171, 65.696884, 57.617889
1648228120.232179, -0.161609, 14.328249, -3.787477, -1.412310, 0.653483, 0.022222, 33.639679, 64.552078, 62.380112
1648228120.265455, 1.843535, 7.855525, 1.893215, -1.715353, -1.361233, -0.380818, 33.402817, 63.842804, 64.649582
1648228120.298785, 1.578527, 6.173150, -0.878522, -2.239922, 0.253122, -0.207037, 33.357437, 62.504303, 68.801178
1648228120.332123, 0.001496, 8.627655, -0.596156, -1.816612, 1.388325, -0.134157, 32.419556, 61.017365, 71.877853
1648228120.365458, 0.306907, 8.650700, 0.057461, -1.783353, 1.714859, -0.099682, 30.989532, 59.995941, 73.523331
1648228120.398779, 0.771980, 7.596952, -0.253486, -1.071425, 1.386746, -0.281423, 29.390564, 59.100037, 74.373047
1648228120.432116, -1.370531, 7.134272, 1.525855, -1.298541, 0.583487, -0.456205, 27.720551, 57.855957, 75.849304
1648228120.465494, -2.947711, 9.710283, 0.872687, -1.898741, 0.018664, -0.709450, 26.495865, 56.295959, 78.122040
1648228120.498789, 2.120066, 11.263372, -4.306121, -1.156265, 1.312712, -0.476988, 25.021210, 54.541214, 80.278610
1648228120.532205, 1.332523, 13.238888, 2.604143, -0.340506, 0.909189, -0.231861, 22.883636, 54.382065, 79.845871
1648228120.565480, 2.055721, 13.754240, -1.810166, -0.179077, 0.617486, -0.093388, 22.406601, 54.651840, 79.669281
1648228120.598802, 1.618331, 13.945776, -4.533271, 0.885372, 0.911761, 0.143144, 21.651245, 55.881424, 77.974686
1648228120.632125, 5.327997, 14.370597, 0.896030, 1.590130, 0.120362, 0.680804, 22.032150, 58.336456, 75.140244
1648228120.665454, 0.783951, 13.325977, 0.334141, 2.638958, -0.984269, 0.999628, 25.279739, 62.897385, 70.959717
1648228120.698787, -4.344578, 15.520861, 2.089988, 3.193163, -0.547124, 1.069800, 28.179047, 66.599121, 65.742386
1648228120.732187, -4.390068, 15.900193, 4.393360, 2.715677, -0.753965, 1.218618, 31.278488, 69.381760, 59.524490
1648228120.765472, -5.015852, 13.596821, 2.204162, 2.558067, -0.602777, 0.568055, 34.444824, 70.936920, 52.415695
1648228120.798788, -2.283919, 9.444976, -2.642750, 2.859905, 0.125030, 0.546196, 35.741806, 70.641434, 46.092850
1648228120.832132, -1.123180, 7.590218, 0.578798, 2.032994, 0.242724, 0.639120, 37.282501, 69.843414, 40.669312
1648228120.865508, -0.143353, 6.943334, 2.311751, 1.541821, 0.849271, 0.735153, 39.816559, 68.454651, 34.866348
1648228120.898825, -0.395343, 5.027375, 3.068020, 2.520475, -1.432470, 0.534538, 40.663376, 67.112167, 30.967361
1648228120.932123, -0.226402, 3.890578, 2.857330, 2.060545, -1.766497, 0.393205, 40.573181, 65.093643, 26.962006
1648228120.965463, -2.301875, 2.706495, 2.781613, 0.570249, -1.542575, 0.190778, 40.169495, 64.061691, 24.890915
1648228120.998324, -2.040009, 1.881543, 2.028787, -0.852962, -1.654540, 0.265160, 39.384964, 63.929443, 25.887299
1648228121.032129, -0.125995, 3.342156, -0.574159, -3.003233, -1.337140, 0.814390, 39.361526, 65.420486, 29.783279
1648228121.065548, -2.374150, 9.230545, -19.934722, -0.357454, 1.822979, 0.749621, 40.650299, 66.518173, 32.167007
1648228121.098793, 4.726603, 26.661979, -16.095021, 0.998906, -2.080013, 0.342965, 40.774857, 64.865479, 30.674423
1648228121.132162, -0.918925, 4.524742, -7.327903, -0.136787, 0.696177, 0.544401, 41.647629, 63.345139, 30.520813
1648228121.165464, -0.983867, 6.169558, -8.140286, -0.801102, 0.495253, 0.281086, 42.429672, 61.757828, 30.640182
1648228121.198792, -4.995053, 14.317625, 9.218574, -0.730435, -1.209031, -1.611794, 39.143921, 59.652649, 33.447876
1648228121.232125, -1.076792, 14.227693, 2.046294, 0.062051, -0.918387, -0.587661, 35.808716, 57.316772, 33.818268
1648228121.265466, -2.586336, 3.701585, 3.765331, -2.166192, 0.820741, 0.141804, 35.620926, 56.633347, 36.455246
1648228121.298801, -0.752976, 12.230330, 7.576601, -3.893830, 0.947702, 0.160386, 36.165314, 56.694046, 42.733459
1648228121.332135, 1.216105, 13.308619, -5.692663, -2.101033, 1.503864, 0.364430, 36.295868, 56.317429, 45.750488
1648228121.365452, -0.647482, 10.263494, 0.497844, -1.280702, -0.605357, -0.249466, 35.876434, 55.442291, 47.420990
1648228121.398790, -0.567426, 7.070227, -0.070479, -2.249968, -0.497976, 0.065696, 35.957489, 54.553833, 51.231628
1648228121.432172, -1.360804, 5.647024, -1.519121, -1.906487, 1.290621, -0.011837, 35.490173, 53.537613, 54.230453
1648228121.465533, -0.625635, 8.694992, 0.516998, -1.990958, 1.282760, -0.234383, 34.754593, 52.042160, 56.557236
1648228121.498791, 1.956063, 9.286360, -1.463306, -1.412096, 1.959499, -0.104330, 33.655716, 50.869614, 57.728210
1648228121.532124, 0.507720, 8.172308, 2.236783, -1.036383, 1.500432, -0.157261, 32.283813, 49.293411, 57.912643
1648228121.565456, -2.056470, 7.000197, 2.322974, -1.692214, 0.245973, -0.679855, 31.297913, 47.660904, 59.864334
1648228121.598797, -0.464325, 11.159224, -2.308609, -1.274015, 0.979461, -0.617579, 29.734314, 45.745010, 60.953125
1648228121.632160, 1.657386, 12.272378, -1.011999, -0.529114, 1.404138, -0.314175, 28.299347, 44.220444, 60.633026
1648228121.665459, 0.806397, 14.878766, -0.153528, 0.020970, 0.853145, -0.325422, 26.667648, 42.653366, 60.360718
1648228121.698792, 3.788974, 12.940361, -4.595820, 0.603482, 1.180228, 0.025207, 25.644592, 41.706421, 59.325745
1648228121.732169, 4.986524, 14.376134, -2.177227, 1.609939, 0.418237, 0.469707, 25.095184, 41.619888, 57.960205
1648228121.765474, 3.270629, 11.692533, -2.476053, 2.468161, -0.662212, 1.012829, 26.176071, 42.880386, 56.698090
1648228121.798381, -1.191864, 13.773244, 1.450587, 3.108090, -1.036704, 0.986074, 27.624878, 44.475815, 55.557648
1648228121.832133, -1.733701, 17.758093, 4.875792, 2.528775, -1.067500, 1.302026, 29.267883, 46.467743, 54.169113
1648228121.865484, -3.377470, 17.328035, 1.665467, 2.655527, -1.228591, 1.094978, 32.322388, 48.959839, 52.225784
1648228121.898805, -3.988291, 11.877634, -0.397737, 2.747895, 1.226804, 0.437330, 33.778488, 50.345001, 48.926743
1648228121.932128, -1.871069, 8.082675, 2.641702, 1.719853, -0.927898, 0.804478, 35.504623, 51.402039, 46.283417
1648228121.965460, -1.073201, 6.995558, 0.707636, 1.753709, 0.001264, 0.846942, 37.823776, 52.671814, 44.263733
1648228121.998650, -1.088314, 5.256619, 2.664597, 2.104217, -1.455474, 0.629468, 39.433777, 53.198380, 42.239349
1648228122.032057, -0.961272, 3.516484, 2.603694, 2.131341, -2.058501, 0.492800, 40.444641, 53.211899, 39.880005
1648228122.065460, -1.410484, 1.949329, 2.590975, 0.906221, -1.803643, 0.262087, 41.034348, 53.286438, 38.458466
1648228122.098805, -2.479794, 1.600225, 2.744204, -0.966162, -1.478843, -0.035446, 41.025681, 53.589828, 39.545944
1648228122.132127, -1.109264, 2.673126, 1.393725, -2.173828, -1.235878, 0.163663, 41.052536, 54.246231, 41.777649
1648228122.165466, -1.169568, 9.646089, -19.040487, -1.006458, -0.539800, 0.561257, 41.621063, 54.881668, 45.061768
1648228122.198862, 1.004218, 31.957504, -19.885940, 1.124519, -2.056075, 0.058237, 42.116974, 55.112228, 42.827515
1648228122.232131, -1.644517, 9.105598, -6.264728, 0.206899, 1.793719, 0.936693, 44.118790, 55.114731, 41.374512
1648228122.265463, -5.072116, 2.251148, -9.169343, 0.444996, 1.119041, -0.130765, 45.579025, 55.087585, 40.196777
1648228122.298886, 0.214580, 13.456461, 12.603526, -1.826720, -1.942060, -0.540482, 45.032318, 54.791000, 42.119400
1648228122.332135, 1.360954, 21.443817, -0.586280, 0.236731, 1.169039, -1.173668, 43.783920, 54.156387, 42.027283
1648228122.365168, -1.452233, 4.227412, 4.439299, -0.784605, -0.410648, -0.345112, 43.254150, 53.635025, 42.134491
1648228122.398807, -1.421707, 9.673921, 8.284686, -3.637500, 1.098853, -0.254180, 43.156815, 53.482117, 47.328278
1648228122.432131, -0.039055, 15.273660, -1.279551, -2.429425, 1.113801, 0.203610, 43.278778, 52.850586, 51.399521
1648228122.465538, -1.829170, 10.958860, -2.019359, -0.973999, 0.162123, -0.219816, 43.235825, 52.576462, 52.742767
1648228122.498808, 0.503979, 7.052271, 1.819893, -2.191911, -0.634662, -0.088431, 43.130005, 51.635086, 55.196930
1648228122.532130, -1.196951, 6.211906, -2.537704, -2.114646, 1.487467, -0.046799, 43.387131, 50.597733, 58.799301
1648228122.565258, -0.812831, 7.994389, -0.430058, -2.094661, 1.448914, -0.376593, 42.269974, 49.469620, 60.310532
1648228122.598806, 1.988384, 9.226355, -0.596306, -1.752542, 1.327786, -0.299396, 41.514526, 48.299347, 62.340317
1648228122.632131, 1.550246, 8.307431, -0.097264, -1.285353, 1.259187, -0.267537, 40.369156, 46.902405, 63.587265
1648228122.665495, -0.839617, 7.346009, 1.793107, -1.991612, -0.090718, -0.508213, 39.745346, 45.687408, 65.301620
1648228122.698818, -1.355567, 10.133907, -4.058022, -1.660723, 0.240584, -0.726613, 39.405472, 44.093689, 67.420258
1648228122.732152, 2.828001, 11.685799, -0.680851, -0.365375, 1.587882, -0.382608, 37.923050, 42.927032, 66.868912
1648228122.765481, 1.585410, 12.459126, 1.242740, -0.130054, 0.885820, -0.080229, 37.401718, 42.171860, 66.714661
1648228122.798802, 1.887978, 13.772495, -4.719570, 0.304499, 0.693350, -0.052146, 37.095566, 41.781387, 65.641418
1648228122.832136, 3.922600, 15.001619, -1.705719, 1.496706, 0.472928, 0.334244, 36.865540, 42.211060, 63.849762
1648228122.865462, 3.932177, 13.125163, -0.108936, 2.922200, -1.100283, 0.941026, 38.443817, 43.658188, 60.984940
1648228122.898801, -1.742979, 15.331869, 3.212121, 3.237557, -1.925888, 0.886621, 40.034515, 45.186630, 57.989456
1648228122.932153, -2.443283, 16.484527, 3.627216, 2.641052, -0.763331, 1.130361, 41.592270, 46.449295, 55.502060
1648228122.965474, -4.985626, 16.921918, -0.354491, 2.903802, -0.096082, 0.596964, 43.372192, 47.762680, 50.388580
1648228122.998889, -4.582652, 11.797279, 0.885256, 2.319688, 0.207351, 0.308881, 43.718140, 48.193573, 46.849838
1648228123.032153, -0.863259, 6.902633, 1.147272, 1.704116, 0.258192, 1.011421, 44.974991, 48.300827, 44.587723
1648228123.065478, -1.473182, 6.211158, 1.988983, 1.368855, 0.146103, 0.649696, 46.510239, 48.335968, 41.598221
1648228123.098827, -0.486173, 5.487061, 2.809596, 2.115109, -1.649882, 0.584857, 47.100784, 48.170792, 39.599213
1648228123.132157, 0.153827, 4.763563, 2.404976, 2.378580, -2.197792, 0.516222, 47.202652, 47.542084, 36.871216
1648228123.165510, -1.868824, 3.976470, 2.139070, 0.920463, -1.668257, 0.317116, 46.766830, 47.125977, 35.252533
1648228123.198883, -2.989460, 2.043301, 1.336413, -0.804547, -1.187851, 0.218682, 46.444458, 46.959335, 35.910172
1648228123.232192, -1.260547, 2.829049, -1.388487, -1.715599, -0.816280, 0.218505, 46.342499, 47.391815, 37.956207
1648228123.265470, -0.356287, 10.350134, -22.382942, -0.386415, 0.230901, 0.411919, 46.515427, 47.479172, 39.269409
1648228123.298811, 5.607220, 28.502073, -16.851738, 0.931826, -1.449840, 0.302689, 46.208572, 47.090881, 37.965073
1648228123.332148, -1.999308, 2.208651, -6.464195, 0.080146, 1.195269, 0.796579, 47.645035, 47.023102, 37.285370
1648228123.365487, -3.105728, 6.192004, -9.007735, -0.004410, 0.265795, 0.135766, 48.182495, 46.808411, 37.325821
1648228123.398806, -1.958307, 14.116063, 13.451373, -0.813205, -0.449164, -1.549819, 46.524475, 46.924240, 39.036942
1648228123.432149, -3.866187, 20.490326, -1.444003, 0.951948, -0.981852, -1.026641, 44.432755, 46.162521, 37.683792
1648228123.465481, -2.763208, 2.346018, 5.255422, -1.372233, 0.606442, 0.135551, 44.158707, 46.264328, 38.385132
1648228123.498818, -1.356016, 8.757690, 8.027459, -4.449056, 1.923320, -0.224426, 44.332199, 46.539078, 43.222961
1648228123.532157, 0.766145, 17.581820, -1.598728, -2.190225, 2.054568, 0.521062, 44.756683, 46.836685, 45.989624
1648228123.565481, -0.677559, 10.374824, 2.049586, -0.975623, -0.116729, -0.395592, 44.481369, 46.436203, 47.378906
1648228123.598817, 0.467618, 7.606678, 2.015020, -2.276061, -1.485254, -0.156613, 44.017242, 46.188339, 49.805618
1648228123.632154, -1.682376, 6.321889, -1.972972, -2.160755, 1.400941, -0.020146, 43.716797, 45.396790, 52.765442
1648228123.665487, -1.447295, 8.043320, 0.214431, -2.281743, 1.741220, -0.259985, 43.191711, 44.813477, 54.842957
1648228123.698816, 0.635212, 7.727585, 0.342670, -2.137881, 1.217536, -0.524094, 42.187256, 43.979248, 56.364761
1648228123.732146, 2.850297, 7.456741, -0.734272, -1.699569, 1.684500, -0.564714, 40.319016, 42.704239, 58.257034
1648228123.765475, 1.104326, 9.500192, -1.047763, -1.614940, 1.151258, -0.357009, 39.327072, 41.778473, 59.181839
1648228123.798863, -1.320851, 10.770316, -4.017620, -1.085777, 0.364270, -0.537563, 38.209457, 40.876328, 59.805954
1648228123.832144, 0.650325, 12.862100, -3.072958, -0.384142, 1.248828, -0.362938, 36.799179, 40.108444, 59.693558
1648228123.865510, 3.138798, 14.193576, -0.481384, -0.016896, 0.903259, -0.213344, 35.667694, 39.553970, 58.981873
1648228123.898854, 3.432986, 15.599571, -2.894141, 0.563229, 0.382618, 0.075438, 35.185699, 39.029480, 57.741013
1648228123.932217, 4.766407, 13.848661, -0.934636, 2.399586, -0.610284, 1.096966, 35.501511, 38.838043, 55.440155
1648228123.965477, 2.455703, 13.862428, -0.008230, 2.980268, -1.284586, 1.366267, 35.973724, 38.887817, 53.154663
1648228123.998896, -5.922507, 15.626954, 3.434183, 3.190825, -0.096255, 1.232876, 36.353241, 39.000656, 51.115616
1648228124.032146, -5.177162, 16.728586, 3.922151, 2.683645, -0.240061, 1.343220, 36.703629, 39.174637, 49.184814
1648228124.065534, -5.385906, 14.799458, 1.607108, 2.578059, -0.671488, 0.623965, 36.652756, 39.739746, 47.576172
1648228124.098811, -1.113753, 7.794174, -1.677438, 2.715616, 0.048954, 0.700822, 36.450684, 40.237991, 46.384628
1648228124.132147, 0.101754, 7.867047, 1.704522, 1.959946, 0.906173, 0.901124, 36.646317, 40.976837, 44.551254
1648228124.165476, 0.283863, 6.409427, 3.275567, 1.845906, -1.359242, 0.735063, 37.040314, 42.217789, 43.791748
1648228124.198695, -0.075717, 3.650260, 2.243367, 2.906573, -2.497805, 0.156834, 36.836426, 42.736481, 42.653412
1648228124.232184, -1.414824, 2.282273, 2.245013, 1.891876, -2.656825, -0.018306, 36.148209, 43.114670, 42.323593
1648228124.265479, -2.404826, 2.409914, 1.979406, -0.216424, -1.358511, -0.040096, 35.283554, 43.799393, 43.758926
1648228124.298815, -0.528071, 2.130989, 1.637933, -1.572099, -0.700020, 0.137009, 34.924347, 44.950775, 45.895905
1648228124.332236, 1.617433, 4.585944, -1.496077, -2.900882, -1.141724, 0.764984, 35.216873, 45.685562, 50.286530
1648228124.365497, -1.027711, 15.678878, -31.274110, 1.291823, 0.563787, 0.677243, 36.398087, 47.277924, 52.770569
1648228124.398831, 2.125004, 31.215901, -10.755352, 0.630695, -0.656400, 0.853929, 37.113495, 49.067444, 51.819138
1648228124.432158, -5.222652, -0.076016, -11.447875, -0.030230, 0.541905, 0.356406, 38.105270, 50.492050, 51.252655
1648228124.465505, -1.622820, 14.535498, 9.272593, -0.842535, -0.575798, -0.797946, 36.997177, 51.053391, 51.269012
1648228124.498326, -5.627421, 13.964331, 5.639093, -0.594343, -0.358293, -1.203685, 35.009201, 50.762482, 52.823288
1648228124.532216, 0.081852, 5.915623, 4.664354, -1.350489, 0.709988, -0.116884, 34.380142, 50.768005, 53.721298
1648228124.565510, 0.829292, 10.458771, 8.874857, -3.762021, 1.013108, -0.192643, 33.758163, 50.267334, 56.614761
1648228124.598836, 1.110910, 14.943559, -3.447800, -1.796977, 0.800977, 0.286577, 33.606873, 49.657654, 60.588470
1648228124.632151, -1.420659, 9.256433, 1.055544, -1.575416, -0.385088, -0.096904, 33.627304, 49.097336, 62.449875
1648228124.665486, -0.618003, 7.439084, 0.508768, -2.609158, -0.921748, -0.099692, 34.094040, 48.019852, 65.820770
1648228124.698878, -0.808492, 5.767632, -1.598878, -2.186116, 1.292748, -0.188845, 33.337662, 46.580688, 68.580292
1648228124.732189, 0.639551, 8.143727, 0.219369, -1.931670, 0.880780, -0.369644, 31.819427, 45.023254, 70.615906
1648228124.765480, 1.654244, 9.663596, -0.540940, -1.517727, 1.337278, -0.040188, 30.777603, 44.074493, 71.632874
1648228124.798820, -0.476147, 8.199093, -0.438289, -0.975116, 1.467913, -0.053507, 29.341110, 43.630432, 71.903732
1648228124.832163, -2.982277, 7.711275, 2.424578, -1.286251, 0.735340, -0.553718, 27.846222, 42.722122, 72.320511
1648228124.865479, -1.191864, 10.784681, -1.379659, -1.219325, 1.277616, -0.677068, 26.190002, 41.688782, 73.127869
1648228124.898820, 2.558953, 12.166585, -0.850241, -0.697516, 1.726019, -0.376005, 24.156326, 41.185791, 72.134064
1648228124.932160, 2.978088, 12.501324, 0.396689, -0.450014, 0.681752, -0.253647, 22.542328, 40.739990, 71.424973
1648228124.965497, 1.109563, 14.711771, -4.929811, -0.171355, 0.276248, -0.328335, 22.052734, 40.799927, 71.654938
1648228124.998808, 7.209689, 17.186328, -3.988441, 1.684766, 0.781313, 0.420557, 21.855820, 42.076782, 69.781342
1648228125.032222, 4.273650, 13.391069, 0.243460, 2.714587, -1.148388, 1.078352, 24.337601, 45.900681, 66.572235
1648228125.065486, -3.852121, 13.443891, 1.878850, 3.136310, -1.903352, 1.021904, 27.501022, 48.861877, 63.596207
1648228125.098894, -5.120449, 15.989077, 4.388721, 2.519450, -0.490536, 0.786060, 29.790298, 50.757629, 60.345779
1648228125.132233, -2.285714, 14.861109, 0.598550, 2.776169, -0.230257, 0.944884, 31.931992, 51.761902, 56.324097
1648228125.165500, -3.226187, 10.634296, 0.293290, 2.595670, 0.570988, 0.499149, 33.706390, 52.525375, 51.331467
1648228125.198873, -2.451662, 8.936058, 1.918803, 2.024027, -0.230261, 0.411677, 34.660461, 52.095413, 48.132599
1648228125.232161, 0.108936, 8.144924, 2.638410, 1.429234, 0.298569, 0.755100, 35.881287, 51.902054, 46.310791
1648228125.265485, -0.271742, 5.509058, 3.901651, 2.564529, -1.657045, 0.569768, 37.383347, 51.720657, 43.507751
1648228125.298827, -0.980575, 3.242348, 3.169324, 2.858182, -2.734175, 0.213039, 37.671967, 50.869385, 41.531097
1648228125.332152, -1.525555, 1.935413, 2.727145, 0.537844, -2.495135, 0.354211, 37.481552, 50.829987, 40.939087
1648228125.365487, -2.281076, 1.942446, 2.492514, -0.516609, -2.058568, 0.495170, 38.027603, 51.258545, 43.092896
1648228125.398820, -2.227206, 3.274969, -0.524929, -1.684925, -0.985909, 0.841345, 39.103104, 51.322342, 45.888092
1648228125.432163, -4.179229, 8.292168, -18.801516, 0.500768, 1.060088, 0.487023, 40.307022, 51.774979, 48.154709
1648228125.465496, -0.349703, 30.898818, -22.161179, 1.666169, -2.191174, -0.139541, 39.948135, 51.758286, 47.228607
1648228125.498824, -2.064700, 3.298911, -5.537040, 0.384419, 0.990624, 0.999036, 41.016129, 52.389923, 46.851578
1648228125.532261, -3.463063, -4.958242, -8.806921, 0.370851, 1.082834, -0.063364, 40.740646, 52.954803, 46.879059
1648228125.565491, 2.040608, 10.688464, 13.215095, -2.731112, -1.440116, 0.596550, 41.077835, 53.438187, 51.352325
1648228125.598819, -0.969951, 32.702251, 2.505682, -0.004418, 1.727505, -2.350625, 38.062454, 53.392944, 52.401978
1648228125.632163, 1.142782, 3.672107, 6.008399, -0.002140, -1.508164, 0.089977, 37.249008, 53.731567, 52.657867
1648228125.665574, -1.873014, 2.902521, 7.627777, -3.742493, 0.232218, 0.676140, 38.311218, 54.240051, 56.892670
1648228125.698832, -1.633444, 13.472322, -2.753482, -2.938517, 0.800032, -0.177824, 37.745712, 52.910461, 63.398926
1648228125.732216, -0.850989, 12.475586, -1.380706, -0.902413, 0.566272, -0.030003, 37.220322, 52.773880, 64.695526
1648228125.765234, -0.685939, 8.031050, 2.745850, -2.892796, -0.626104, 0.094001, 37.341904, 51.796722, 68.190063
1648228125.798894, -0.741604, 5.843648, -1.422455, -2.220810, 0.783316, -0.149702, 37.131622, 50.494415, 71.877899
1648228125.832166, 1.087865, 7.863456, 1.883489, -1.950006, 1.283743, -0.152465, 35.493408, 48.341690, 74.829224
1648228125.865509, 0.118214, 9.192088, -0.459238, -1.753824, 1.813099, 0.027136, 33.493591, 47.339111, 76.812119
1648228125.898826, -1.099836, 8.920795, 0.408211, -1.281412, 1.353396, -0.145353, 31.573090, 46.350388, 77.747879
1648228125.932222, -2.106748, 6.974609, 1.262642, -1.587277, 1.074967, -0.536393, 28.896606, 44.769928, 79.660294
1648228125.965497, -1.128567, 12.097302, -1.366042, -1.591856, 0.412445, -0.649335, 27.117065, 43.124985, 81.393616
1648228125.998827, 2.774281, 12.152968, -3.880103, -0.770870, 1.564204, -0.370698, 24.659256, 41.996872, 82.676163
1648228126.032193, 1.363049, 13.612383, -0.649726, -0.197067, 1.122745, -0.058842, 21.845688, 42.488586, 81.824936
1648228126.065545, 1.744924, 14.819809, -3.906140, 0.313128, 0.761708, 0.059475, 20.143631, 43.928741, 81.773422
1648228126.098840, 4.651635, 15.245229, -1.862539, 1.875804, 0.672851, 0.770800, 19.143433, 47.171036, 79.133987
1648228126.132161, 3.198055, 13.349470, 0.920571, 2.819707, -0.751178, 1.233832, 19.895950, 52.135605, 76.394302
1648228126.165533, -3.127127, 15.597027, 2.167800, 3.374356, -1.338281, 0.897049, 23.039520, 58.854019, 70.712463
1648228126.198826, -5.170727, 16.263064, 5.083489, 2.735392, -0.234326, 0.888563, 24.389923, 62.323669, 65.139862
1648228126.232192, -3.555988, 14.517092, 1.408389, 2.640720, -1.063439, 0.757462, 26.299240, 64.902664, 60.602646
1648228126.265495, -1.006163, 11.559954, -0.168193, 2.310165, 0.812811, 0.460832, 27.855255, 66.493027, 53.422043
1648228126.298825, 0.230891, 7.990648, 1.479018, 1.840337, 0.843480, 1.044443, 29.879700, 67.085953, 48.186615
1648228126.332201, -0.236427, 7.297377, 2.687491, 1.744268, -0.811870, 0.979882, 32.392868, 67.375000, 44.429565
1648228126.365495, -0.537498, 4.915895, 3.014898, 2.385146, -2.044059, 0.681152, 34.417557, 67.520279, 39.885880
1648228126.398833, -0.130035, 3.048268, 2.073079, 1.861707, -2.031718, 0.378762, 34.991196, 67.287476, 36.099823
1648228126.432175, -1.351826, 1.942745, 1.919551, 0.322317, -1.736150, 0.132372, 34.837326, 67.258331, 35.175659
1648228126.465566, -2.039710, 1.594389, 2.056619, -0.851254, -1.175903, 0.108164, 34.173553, 67.948898, 36.547028
1648228126.498883, -0.723199, 2.922422, -0.297928, -1.655374, -1.153188, 0.186296, 33.774597, 68.903702, 39.013489
1648228126.532162, -0.708085, 9.099612, -16.561740, 0.412254, 1.175777, 0.534041, 33.800705, 69.462601, 39.660202
1648228126.565514, 0.628777, 26.767025, -20.389919, 1.056150, -1.722409, 0.147567, 33.864243, 69.140396, 38.702957
1648228126.598856, -0.188843, 7.627777, -6.471527, 0.228218, 0.495484, 0.915546, 36.469498, 69.094513, 36.967148
1648228126.632167, -0.508469, 4.116830, -7.006482, 0.170809, -1.271552, 0.153129, 37.125748, 68.458740, 36.545731
1648228126.665497, 3.285294, 14.858116, 3.208978, -1.587038, -1.281866, 0.078629, 37.473343, 68.095917, 38.218613
1648228126.698834, -7.812280, 15.399355, 3.390489, -0.197255, 2.042530, -1.700799, 35.957275, 66.890030, 38.782944
1648228126.732193, -0.498144, 7.846996, 5.380220, -1.497417, -0.919967, 0.304402, 34.438629, 65.832291, 39.633911
1648228126.765543, -1.978508, 4.820575, 7.028029, -3.407137, 2.340882, 0.346019, 35.789612, 66.471786, 43.548203
1648228126.798859, 0.460734, 14.769531, 2.156128, -3.769583, 0.936059, 0.338469, 36.811523, 66.435287, 51.231796
1648228126.832163, -0.160112, 13.965678, -2.090138, -0.884933, 0.734818, -0.371141, 37.015976, 65.806290, 52.601364
1648228126.865500, 0.509516, 8.725967, 2.349610, -2.053015, -1.300561, -0.066499, 37.035706, 65.537857, 55.200821
1648228126.898833, -1.777695, 5.698799, -2.164658, -2.430269, 0.162487, -0.116278, 37.468781, 64.234787, 61.173691
1648228126.932165, -0.368857, 6.117933, 0.571915, -1.856049, 1.685809, -0.217576, 36.729889, 63.243622, 63.553574
1648228126.965549, 0.645237, 9.220968, 1.147122, -2.013956, 1.328066, -0.411324, 35.370880, 61.746902, 66.480377
1648228126.998828, 2.035520, 9.403975, -0.974739, -1.356882, 1.776405, -0.164833, 34.110718, 60.599930, 67.967224
1648228127.032176, -0.502034, 7.450307, 0.075118, -1.102725, 1.216576, -0.304971, 33.014648, 59.553711, 69.338654
1648228127.065508, -4.195389, 8.922441, 1.872116, -1.719109, 0.162454, -0.836150, 32.091034, 58.166016, 71.556351
1648228127.098836, 2.201768, 11.951855, -3.651606, -1.293092, 1.331355, -0.592904, 30.878235, 56.691238, 73.106201
1648228127.132174, 3.065775, 12.726678, -1.068861, -0.370310, 1.511461, -0.266509, 29.413879, 55.666733, 73.477051
1648228127.165499, 2.407519, 13.339295, -0.524181, 0.099681, 0.659774, -0.001449, 29.361343, 55.907242, 73.079926
1648228127.198861, 2.084751, 13.942035, -4.618415, 0.954908, 0.952110, 0.338866, 30.084030, 56.468246, 71.710907
1648228127.232168, 2.905663, 12.692860, -1.635539, 2.309730, 0.272941, 0.757267, 32.389023, 59.398224, 67.792313
1648228127.265499, 0.765995, 12.660089, 1.313669, 3.606280, -1.387648, 1.038206, 35.735809, 61.808899, 63.209000
1648228127.298851, -3.036596, 17.309928, 7.135918, 2.855950, -0.718358, 1.088695, 39.269638, 63.587906, 58.581131
1648228127.332164, -4.249409, 16.559496, 0.251990, 2.925922, -1.247209, 1.018152, 42.671310, 64.790741, 54.356537
1648228127.365503, -5.675305, 13.157784, -1.193809, 2.648984, 1.364621, 0.025768, 45.037842, 64.673309, 48.106140
1648228127.398847, -2.345869, 8.532486, 0.537349, 1.836925, 1.968455, 0.657455, 46.295700, 64.479568, 43.919266
1648228127.432171, 0.796521, 7.258022, 2.297087, 0.959463, 0.121398, 1.295635, 48.686844, 64.335129, 41.728348
1648228127.465577, 0.522535, 6.211158, 2.208352, 1.290433, -0.502497, 1.136017, 51.894226, 63.535522, 39.697372
1648228127.498832, -0.642694, 4.897639, 2.620903, 2.133559, -2.233097, 0.414198, 52.957031, 62.487839, 36.435013
1648228127.532168, -1.607856, 1.603666, 2.985719, 1.123923, -2.184996, 0.208649, 52.896851, 61.835907, 33.832077
1648228127.565294, -3.413832, 0.476596, 2.486079, -0.438315, -1.745743, 0.030342, 52.997559, 61.812851, 34.410339
1648228127.598914, -2.456152, 2.864662, 0.563236, -1.556802, -1.554027, 0.241016, 53.293976, 62.137955, 36.829575
1648228127.632172, -1.701380, 8.211513, -9.689633, 0.250561, -0.091031, 0.501528, 54.692825, 62.365616, 38.271881
1648228127.665531, 2.502839, 28.416181, -21.828236, 1.800081, -1.833305, 0.196925, 55.527969, 62.063187, 36.786240
1648228127.698841, 0.261866, 6.697929, -7.364864, 0.274199, 0.397413, 0.878350, 57.107620, 61.285385, 34.517654
1648228127.732185, -1.791910, -0.680402, -7.606079, -0.011233, -0.069372, -0.094154, 57.481216, 61.175751, 35.007767
1648228127.765531, 1.464653, 14.191331, 12.411841, -2.029763, -0.532613, -0.195981, 56.916534, 61.428589, 37.501663
1648228127.798841, -6.771999, 21.880759, -9.841067, 0.030164, -0.440544, -1.292853, 53.616959, 62.052521, 39.146774
1648228127.832236, -2.155530, 6.957849, 3.257461, -0.512427, -0.696094, 0.060655, 52.881653, 62.100861, 39.779663
1648228127.865515, -2.348113, 7.423671, 8.167220, -3.132083, 1.351715, -0.387027, 52.149521, 62.433136, 43.414810
1648228127.898828, -1.280000, 13.398701, 3.117101, -3.681478, 0.862729, -0.137397, 51.473083, 62.307159, 51.345276
1648228127.932193, -1.107618, 12.353931, -3.215562, -1.097214, 0.221373, -0.034253, 51.550262, 62.044632, 53.697220
1648228127.965518, 0.225205, 8.513482, 1.423951, -1.972131, -0.202520, -0.164662, 50.862778, 61.622086, 56.439789
1648228127.998834, -0.299724, 6.754641, -1.791312, -2.247662, 0.661658, 0.007511, 50.197266, 60.688507, 61.049667
1648228128.032182, -0.161908, 6.836344, -0.548571, -1.902839, 1.957034, -0.241306, 48.841995, 59.947433, 64.289261
1648228128.065510, 1.686266, 10.101586, -1.400009, -1.494917, 1.636915, -0.259911, 47.371017, 58.905594, 66.541519
1648228128.098839, 1.263091, 9.010728, -0.200664, -0.937112, 2.196375, -0.107418, 45.344513, 58.506821, 67.553589
1648228128.132169, -0.469413, 7.658752, 3.315371, -1.559248, 0.642767, -0.403786, 43.337601, 57.343597, 69.833572
1648228128.165507, -1.648408, 8.846126, -0.735319, -1.781276, 0.547385, -0.593291, 41.949783, 56.018570, 72.121002
1648228128.198852, 1.280898, 10.657938, -3.514987, -1.078270, 1.596632, -0.436093, 39.687103, 54.889359, 73.915131
1648228128.232175, 2.215534, 13.350517, 0.821810, -0.604990, 0.912249, -0.256819, 37.200455, 54.317673, 73.935349
1648228128.265510, 3.602974, 13.791200, -0.950049, -0.135914, 1.153619, -0.040786, 35.339233, 54.356430, 73.602951
1648228128.298848, 3.111864, 15.535526, -4.452317, 0.997479, 0.555149, 0.335560, 34.164978, 55.411316, 72.266281
1648228128.332251, 3.756652, 13.416956, -1.959205, 2.390369, 0.323825, 0.907060, 34.461746, 58.518311, 66.946625
1648228128.365529, 0.207098, 13.017723, -0.291494, 3.432212, -0.811248, 1.074473, 35.574265, 61.301712, 61.661804
1648228128.398844, -2.648436, 16.470910, 5.072864, 2.580929, -0.372441, 1.508992, 37.392960, 63.629379, 55.930618
1648228128.432173, -3.636792, 17.013047, 1.917456, 2.382101, -0.676644, 1.588193, 39.913177, 65.149872, 51.539978
1648228128.465507, -3.904943, 13.144766, 0.148141, 2.349957, 0.108628, 0.761173, 41.729004, 65.590240, 44.930466
1648228128.498854, 0.501136, 8.548796, 0.604386, 1.911464, -0.295704, 1.202818, 43.385544, 65.221344, 41.154861
1648228128.532289, -0.541987, 8.822783, 3.003227, 1.878869, -1.006104, 1.178858, 45.255951, 65.052719, 37.156921
1648228128.565512, -0.049979, 6.324134, 3.651906, 2.171684, -2.540827, 0.740722, 46.402924, 63.970932, 33.241226
1648228128.598869, -0.174926, 3.921553, 2.248006, 2.263142, -2.962809, 0.603556, 46.161209, 62.795212, 29.827042
1648228128.632191, -2.756025, 1.768567, 1.785476, 0.996848, -2.239265, 0.458591, 45.736801, 61.877472, 28.089752
1648228128.665519, -2.196530, 1.800290, 1.914613, -0.733090, -1.056393, 0.411147, 45.569565, 62.133865, 28.559814
1648228128.698887, -1.839196, 2.060510, 2.269105, -1.596691, -0.351347, 0.230948, 45.813660, 63.027573, 30.638809
1648228128.732198, -2.462436, 7.365013, -8.231714, -1.343599, -0.414944, -0.043118, 45.602478, 63.725098, 32.787430
1648228128.765623, -2.784905, 23.889793, -14.812626, 0.451913, -2.024271, -0.582789, 44.203659, 63.461105, 32.254242
1648228128.798848, 1.418864, 15.824925, -13.384335, -0.176245, -0.404106, 0.764321, 44.443146, 62.695007, 32.204178
1648228128.832180, 0.329951, 4.564246, -6.273257, -0.050794, 1.484946, 0.595545, 45.865540, 62.469345, 32.456757
1648228128.865519, 1.834856, 11.328614, -1.778443, -1.078246, 0.071571, -0.016577, 46.816666, 62.035126, 32.764023
1648228128.898864, -2.209698, 14.813524, 7.920917, 0.563387, 2.044205, -2.312427, 44.000046, 60.997269, 34.431519
1648228128.932180, -1.016638, 7.147739, 3.924695, -0.085094, -1.604554, -0.445264, 41.874481, 59.790192, 34.098679
1648228128.965513, -0.161010, 3.812467, 5.902455, -2.480318, 1.086338, 0.598596, 42.767288, 60.206085, 36.812820
1648228128.998111, -0.435296, 10.491691, 6.042815, -4.002359, 2.026063, -0.015832, 43.951340, 60.522293, 44.277618
1648228129.032220, -0.162207, 16.230592, -2.992902, -1.333230, 1.708229, -0.137173, 43.871765, 60.217239, 46.907806
1648228129.065515, -0.247201, 8.184878, 3.176208, -1.378713, -1.175884, -0.375803, 43.505157, 59.691315, 49.088028
1648228129.098858, -1.053449, 5.843498, 0.023194, -2.185647, -0.604248, -0.145610, 43.399185, 58.736130, 53.998718
1648228129.132194, -0.959776, 6.580164, -0.971298, -2.080472, 1.957186, -0.121921, 42.829300, 57.994827, 56.857391
1648228129.165569, 1.310975, 10.292823, -0.302567, -1.936855, 2.120399, -0.078518, 42.291367, 56.563950, 59.022064
1648228129.198859, 1.482011, 8.215853, -0.364068, -1.085705, 2.375905, -0.063501, 41.467270, 55.876160, 60.042679
1648228129.232258, 0.234632, 7.219715, 1.624765, -1.356742, 0.799506, -0.391188, 40.378036, 54.528976, 61.184647
1648228129.265518, -3.616741, 9.591172, -2.615067, -1.495183, -0.315649, -0.619606, 39.932632, 53.059433, 63.678055
1648228129.298936, 1.058087, 11.279234, -1.865831, -0.888000, 1.557493, -0.608103, 38.895233, 51.806992, 64.490295
1648228129.332182, 2.483685, 11.448923, 1.028160, -0.400532, 1.174575, -0.200329, 37.177765, 50.368530, 64.640228
1648228129.365526, 2.535460, 12.365603, 0.553509, -0.298009, 0.444054, -0.008596, 37.286591, 49.483658, 64.783844
1648228129.398857, 0.215179, 13.734487, -3.724031, -0.109107, 0.612862, 0.016373, 37.172806, 48.619843, 64.837326
1648228129.432196, 5.236119, 15.478813, -3.216011, 1.534299, 0.485137, 0.584481, 37.843109, 48.513901, 63.661255
1648228129.465522, 4.329914, 13.100174, -0.116867, 2.726530, -0.546622, 1.168564, 39.480850, 49.908539, 60.964981
1648228129.498371, -2.171541, 13.553725, 2.768745, 3.246635, -2.807745, 1.045892, 41.852997, 50.962463, 58.233521
1648228129.531662, -1.700033, 15.613337, 4.543895, 2.454631, -1.668923, 1.100077, 44.181885, 52.133041, 55.486099
1648228129.565535, -2.844012, 15.382297, 1.424700, 2.601454, -0.347948, 0.712086, 45.905640, 53.362015, 51.255554
1648228129.598467, -2.489820, 12.061838, 1.924938, 2.228800, 0.062486, 0.443328, 46.509613, 53.844330, 47.670959
1648228129.632224, -1.553687, 8.156147, 1.541567, 1.953790, 0.378667, 1.053029, 47.472977, 54.001450, 44.584595
1648228129.665579, -1.033397, 7.615806, 3.554941, 1.779643, -0.460025, 0.957424, 49.079742, 53.943481, 40.843231
1648228129.698855, -0.603488, 4.735881, 2.479196, 2.210318, -1.325496, 0.791000, 49.806625, 53.697144, 38.322113
1648228129.732191, -0.888698, 3.183989, 2.378340, 1.755020, -2.025078, 0.463816, 49.777252, 53.012680, 35.416565
1648228129.765520, -1.983446, 2.479645, 2.249951, 0.469816, -1.648333, 0.079996, 49.281570, 52.319611, 34.005630
1648228129.798845, -2.560000, 1.131859, 1.756446, -0.906755, -1.185440, -0.174794, 48.446930, 51.796234, 35.157715
1648228129.831273, -1.964143, 2.157924, -0.229544, -2.025541, -1.198769, -0.207512, 47.876740, 51.485397, 38.103989
1648228129.865536, -0.682497, 10.464158, -16.260520, 0.151518, 1.042179, 0.096705, 47.658783, 51.186584, 40.779266
1648228129.898863, 6.552780, 32.614713, -8.304438, 2.285558, -3.746886, 0.198875, 46.920410, 50.432739, 38.435608
1648228129.932206, 0.284162, 0.315885, -4.516362, 0.262407, 2.882683, 1.681863, 48.631973, 50.704849, 37.232040
1648228129.965535, -6.132448, -5.909937, -7.769035, -0.802356, -0.483317, -0.890096, 49.298767, 51.012970, 37.198578
1648228129.998863, -0.111480, 15.036335, 13.438355, -2.025741, -2.146755, -1.103884, 46.444153, 51.038788, 41.093933
1648228130.032203, 0.465074, 18.854787, 2.517503, 0.606312, 1.701681, -1.675606, 44.531113, 50.728424, 40.535919
1648228130.065521, 0.405967, 3.101539, 4.888212, -1.422850, 0.018427, 0.470596, 43.528961, 50.907562, 40.637543
1648228130.098863, -3.124882, 7.815273, 6.786963, -3.585864, 0.648535, 0.075926, 44.030228, 51.303711, 44.803848
1648228130.132116, -0.786495, 15.440805, -3.032556, -2.704717, 0.170844, 0.117105, 43.851807, 51.198654, 49.104660
1648228130.165547, -2.810493, 10.980108, -0.148441, -1.238454, 0.189685, -0.100372, 43.849243, 51.069382, 51.001770
1648228130.198875, -0.882712, 6.281188, 3.002329, -2.620999, 0.854140, 0.014399, 43.604538, 50.555893, 54.332199
1648228130.232208, -0.922665, 5.213973, -1.258752, -2.146504, 1.117044, -0.232077, 43.244171, 49.876831, 56.536270
1648228130.265539, 2.096722, 9.365369, 1.637933, -2.080992, 0.938488, -0.350471, 42.309082, 48.944763, 58.985123
1648228130.298867, 2.502689, 9.172486, -2.378340, -1.900631, 2.143266, -0.182112, 41.241425, 47.707809, 61.165787
1648228130.332204, -0.032022, 8.209269, 0.067038, -1.307448, 1.737381, -0.310608, 39.499130, 46.605621, 62.131363
1648228130.365558, -1.820192, 8.635287, 0.510713, -1.541390, 0.683146, -0.733483, 38.452179, 45.160553, 63.228271
1648228130.398868, 0.736816, 12.840253, -4.287866, -0.865537, 0.393944, -0.553742, 37.472809, 44.264496, 64.724091
1648228130.432240, 4.217685, 12.276718, -2.322525, -0.132323, 1.727373, -0.080698, 36.052612, 43.502747, 64.779755
1648228130.465539, 0.716016, 11.597812, 0.138415, -0.129714, 0.804568, -0.122826, 35.394806, 43.170197, 63.742950
1648228130.498949, 1.644068, 14.593108, -3.319112, 0.294075, 0.467867, -0.029438, 34.979782, 42.781982, 63.690155
1648228130.532261, 6.498761, 16.319776, -0.325462, 1.648153, 0.273185, 1.061913, 35.162537, 43.895996, 61.295090
1648228130.565531, 0.943615, 13.126809, 0.676661, 2.659833, -1.219011, 1.321741, 36.812790, 45.422150, 59.078384
1648228130.598903, -7.779958, 12.931382, 2.174085, 3.296487, -2.429114, 0.293094, 38.044205, 46.787338, 56.610352
1648228130.632245, -3.757999, 15.037681, 3.747823, 2.640362, -0.212698, 0.590254, 38.705505, 48.157394, 54.030518
1648228130.665589, -2.953697, 14.359374, -1.109264, 2.775593, 0.624883, 0.529401, 39.652451, 49.390457, 49.610916
1648228130.698870, -3.261202, 11.043405, -0.180912, 2.568508, 0.833819, 0.046326, 39.606903, 50.031006, 45.868057
1648228130.732300, -1.404050, 7.967604, 2.703203, 1.561550, 1.347133, 0.507539, 39.996429, 50.384171, 43.027390
1648228130.765554, -0.200814, 6.496367, 2.789095, 1.635327, 0.355219, 0.752630, 41.407516, 50.807526, 40.388123
1648228130.798883, -0.033070, 4.271256, 2.825308, 2.420893, -1.385601, 0.441067, 42.009995, 50.676041, 37.632950
1648228130.832276, -0.395043, 3.085228, 2.982277, 1.533040, -1.828282, 0.301517, 41.968796, 50.153168, 36.044632
1648228130.865534, -1.356615, 2.237082, 2.964770, -0.063486, -1.622168, 0.203257, 41.616135, 50.145020, 35.490097
1648228130.898864, -1.180192, 2.586636, 1.811812, -1.134078, -1.679551, 0.341307, 41.562668, 50.556808, 37.632645
1648228130.932206, -0.602441, 5.088876, -4.915296, -0.862835, -1.246189, 0.605916, 41.967484, 50.637283, 40.062302
1648228130.965559, -0.359280, 19.816508, -26.777649, 1.456727, -1.529108, 0.220976, 42.314606, 50.469894, 39.241119
1648228130.998891, -1.351078, 13.157634, -7.414094, 1.272054, -0.139065, 0.810169, 43.432449, 50.076660, 37.964966
1648228131.032278, -4.632780, -0.962319, -4.987571, -0.224686, 0.387206, -0.273750, 44.096832, 50.038162, 38.124054
1648228131.065543, -2.600851, 8.030003, -7.340622, -1.437182, -1.541566, -0.237672, 44.307114, 49.837219, 38.788391
1648228131.098876, 1.027412, 18.073080, -0.860865, -0.560907, 0.749059, -0.449080, 44.142609, 49.679886, 42.050842
1648228131.132255, -0.111630, 10.722731, 3.347842, -0.326960, -0.577402, -0.255991, 43.338913, 49.656204, 42.154846
1648228131.165599, -5.048174, 3.933224, 4.696675, -2.256857, 0.877056, -0.455599, 43.211060, 49.616898, 43.778381
1648228131.198869, -0.748338, 11.203367, 7.306505, -4.135817, 0.820542, -0.457381, 42.896545, 49.012863, 50.034378
1648228131.232222, 2.113332, 16.796671, -4.983830, -2.659483, 1.407283, 0.431448, 43.008865, 48.485565, 53.510895
1648228131.265538, 0.342520, 10.109367, 0.529119, -1.585540, -0.540223, -0.113668, 43.393036, 47.977097, 55.670578
1648228131.298866, 0.020500, 6.911761, -0.275034, -2.124068, -1.196072, 0.010788, 44.004776, 46.998459, 59.727448
1648228131.332206, -2.042254, 6.535722, -1.846528, -2.177847, 1.386249, 0.113369, 43.907333, 45.897141, 62.007935
1648228131.365542, -0.883760, 9.417443, -0.708384, -1.861207, 1.856321, -0.219010, 42.884079, 44.539398, 64.382248
1648228131.398871, 0.862212, 8.247875, -0.581342, -1.253669, 1.832738, -0.248468, 42.082642, 43.481720, 65.383438
1648228131.432196, 1.234959, 8.018032, 2.132485, -1.146919, 1.696945, -0.290978, 40.365036, 42.090485, 66.448654
1648228131.465591, -0.184054, 8.096143, 1.574487, -1.814048, 0.118938, -0.549912, 39.948395, 40.451569, 68.155319
1648228131.498863, -1.004517, 10.213664, -1.959205, -1.389811, 0.666624, -0.594495, 39.584137, 38.818710, 69.901520
1648228131.532195, 2.023400, 12.566566, -2.346767, -0.716103, 1.474838, -0.313683, 38.298859, 37.061340, 71.204193
1648228131.565531, 1.165827, 13.135488, 0.333542, -0.277122, 0.818552, -0.278940, 37.564850, 36.154449, 71.863358
1648228131.598866, 1.660229, 13.283629, -2.255039, 0.183751, 0.535479, -0.175007, 37.556549, 35.475250, 72.078827
1648228131.632199, 6.506542, 15.916952, -0.447716, 1.388955, 0.464719, 0.750722, 38.498856, 36.202759, 71.840958
1648228131.665533, 3.287089, 13.714586, 0.005986, 2.635056, -0.781720, 1.327967, 40.178665, 38.210388, 70.752625
1648228131.698872, -5.628469, 14.148235, 0.557550, 3.505820, -2.780105, 0.517139, 42.954376, 40.685349, 69.494202
1648228131.732200, -2.873341, 15.793651, 3.913472, 2.739237, -0.851831, 0.601337, 44.829758, 43.102814, 67.483582
1648228131.765592, -2.729240, 15.043517, -0.499041, 2.787732, 0.361085, 0.667959, 45.523712, 46.114975, 64.430283
1648228131.798876, -4.758326, 12.194118, 0.212485, 2.577238, 1.031069, -0.083399, 44.830795, 48.311859, 61.307739
1648228131.832222, -1.835156, 7.214478, 2.525135, 1.685144, 1.334509, 0.329295, 43.831573, 49.878937, 58.592194
1648228131.865551, 0.224456, 6.855048, 1.806425, 1.173278, 1.472136, 0.951371, 44.341904, 51.658722, 55.334763
1648228131.898868, -0.312144, 4.839280, 3.223194, 2.094648, -1.360287, 0.647936, 45.327545, 52.887878, 53.286224
1648228131.932247, -0.353145, 3.248483, 3.048866, 2.118582, -2.001716, 0.407032, 46.201385, 53.732849, 50.891586
1648228131.965539, -1.597082, 0.814328, 3.112761, 0.599989, -1.942757, 0.169273, 46.436737, 54.503967, 49.479797
1648228131.998867, -1.408389, 1.176301, 1.571644, -1.235299, -2.342559, 0.061871, 46.985458, 54.307297, 51.675186
1648228132.032246, 0.808492, 3.770419, -3.008913, -2.117037, -2.164577, 0.395288, 48.054932, 54.135361, 54.700256
1648228132.065539, -2.895637, 25.003845, -33.257855, 1.715592, 1.265762, -0.368568, 47.794769, 54.431793, 54.891006
1648228132.098881, 1.496675, 24.812907, -7.051822, 0.825171, -1.026225, 1.254231, 48.744675, 55.391190, 52.928238
1648228132.132219, -2.837728, -0.534805, -4.080318, 1.260288, -1.401372, 0.477555, 49.830643, 56.446243, 50.300552
1648228132.165606, -1.246631, 16.422128, 10.018238, -1.518076, -1.089130, -0.479298, 49.215790, 56.962448, 50.241394
1648228132.198935, -4.595221, 20.667347, -2.340182, 0.676753, -0.186938, -1.498749, 46.624664, 56.832001, 49.671982
1648228132.232208, -1.876156, 3.967491, 5.817461, -1.385488, 0.039672, 0.304010, 46.332077, 57.026398, 49.914902
1648228132.265538, -4.210204, 7.809437, 8.169615, -3.641126, 1.880614, -0.922836, 45.204269, 56.523315, 53.374908
1648228132.298906, 0.337283, 14.696508, 1.045518, -3.756618, 0.918494, -0.332090, 43.659470, 54.708145, 60.073669
1648228132.332203, 0.653019, 13.961338, -0.891541, -1.455444, 0.607702, 0.075596, 43.252121, 54.033173, 62.119049
1648228132.365539, 0.639252, 8.853010, 1.232266, -1.827084, -1.214606, -0.231869, 43.076492, 53.223312, 64.036942
1648228132.398874, -1.231667, 6.827515, -1.958008, -2.452336, -0.319929, -0.098450, 43.208893, 51.499649, 67.964645
1648228132.432214, -0.838419, 6.937199, -1.145326, -2.248610, 1.801803, -0.112201, 42.018845, 49.898529, 70.390961
1648228132.465683, 0.878073, 8.353669, -1.216254, -1.763346, 2.169404, -0.151298, 40.051254, 48.419815, 71.553085
1648228132.498877, 0.730980, 9.099912, 0.742352, -1.164784, 1.825957, -0.063820, 38.335754, 47.427338, 72.007751
1648228132.532205, -1.795951, 7.681796, 1.399561, -1.879711, -0.004759, -0.539095, 36.529190, 45.642334, 73.158417
1648228132.565344, -1.799841, 11.473613, -3.711013, -1.307915, 0.208847, -0.674585, 35.824509, 44.008209, 74.671570
1648228132.598873, 2.502839, 12.114960, -1.753902, -0.402940, 1.668542, -0.424792, 33.911667, 42.967773, 74.395432
1648228132.632232, 0.462380, 12.909835, 0.723947, -0.615970, 0.919711, -0.192304, 31.981171, 42.479675, 72.481628
1648228132.665538, 2.272397, 13.892056, -1.470788, 0.098117, 0.364471, -0.218990, 31.036911, 42.353943, 71.516296
1648228132.698874, 5.402067, 14.672266, -1.362750, 1.512017, 0.523901, 0.371809, 30.627579, 43.148697, 69.030212
1648228132.732218, 2.334047, 12.771270, -1.083227, 2.640335, -0.734541, 0.970495, 31.505173, 45.742188, 64.492462
1648228132.765288, -1.578976, 14.271686, 2.649483, 3.057107, -1.723541, 0.906071, 33.281754, 47.975311, 60.709503
1648228132.798877, -3.061286, 15.865327, 4.108600, 2.536700, -1.006234, 1.080799, 34.631165, 49.555222, 56.744110
1648228132.832213, -2.935740, 15.072846, -0.241066, 2.635859, -0.414192, 0.938387, 36.705856, 50.844620, 51.833862
1648228132.865546, -3.157653, 11.027992, 1.277307, 2.206178, 0.504227, 0.548101, 37.837097, 50.915329, 47.984558
1648228132.898918, -1.697788, 7.518092, 2.933196, 1.638643, -0.010575, 1.052625, 39.353134, 50.851608, 45.170731
1648228132.932285, -0.556502, 7.152378, 2.025195, 1.509780, 0.402400, 0.986248, 40.949615, 50.918167, 42.589966
1648228132.965552, -0.377835, 5.206192, 2.380136, 2.104552, -1.730464, 0.760595, 42.513321, 50.323807, 40.434296
1648228132.998903, -0.932990, 4.093337, 2.297985, 2.232010, -2.472275, 0.365397, 42.999832, 49.696640, 38.066238
1648228133.032221, -1.997512, 2.912846, 2.714426, 0.868817, -2.007972, 0.139911, 42.581787, 48.479279, 37.044556
1648228133.065554, -2.508674, 2.347814, 1.982100, -0.424034, -1.462065, 0.003544, 41.821014, 47.648575, 38.204132
1648228133.098895, -1.675043, 3.446902, 0.098910, -1.699279, -1.038162, 0.183797, 41.516006, 46.871140, 40.438110
1648228133.132215, -0.783203, 10.998962, -24.125921, -0.076797, 0.478975, 0.771881, 42.149323, 46.001633, 42.142700
1648228133.165559, 1.742829, 29.508386, -20.435559, 1.356434, -3.078377, -0.361742, 41.847931, 44.717484, 42.212616
1648228133.198937, -0.994940, 8.191761, -7.877073, -0.080738, 2.412533, 1.223708, 43.569061, 44.596649, 42.549774
1648228133.232226, -6.376507, 7.508965, -3.653552, 0.486443, -1.139917, -0.175064, 44.188965, 44.197266, 42.828842
1648228133.265626, 4.909610, 16.981923, 10.587160, -1.269102, -0.797660, -0.921066, 43.388901, 43.666382, 45.523956
1648228133.298879, -4.653281, 14.053216, 2.709937, 0.429689, -1.078094, -1.030198, 41.514297, 43.494797, 45.499847
1648228133.332210, -4.503942, 1.840991, 4.751742, -2.379392, 1.895055, 0.001310, 41.090363, 43.190079, 47.393768
1648228133.364939, -3.685125, 11.640908, 7.009624, -4.717109, 2.576032, -0.904660, 40.385117, 42.424103, 50.804153
1648228133.398880, 2.368165, 17.217452, -2.544587, -2.419245, 1.632818, 0.493605, 39.644302, 41.518616, 55.261261
1648228133.432278, 0.683844, 11.733683, 0.456395, -1.070965, -1.208905, -0.122849, 39.532944, 41.293365, 57.157303
1648228133.465551, 2.327912, 4.991761, -0.830040, -1.672172, -1.845330, -0.380099, 39.827606, 40.528336, 59.915131
1648228133.498923, 0.767940, 6.657826, -0.954838, -2.392010, 1.733276, -0.002651, 38.939850, 39.040375, 62.884430
1648228133.532283, -1.277905, 9.054272, -1.277007, -1.752496, 1.597293, -0.171412, 37.729507, 37.788651, 64.160568
1648228133.565557, -0.209792, 7.170784, 0.553210, -1.591472, 1.020849, -0.360714, 36.166824, 36.660080, 65.456406
1648228133.598882, 1.254861, 7.219865, -0.142305, -1.474530, 0.802842, -0.487269, 34.972900, 35.131973, 66.540634
1648228133.632225, -0.032172, 9.372402, 0.929848, -1.331055, 0.604423, -0.526861, 33.108627, 33.376709, 67.601593
1648228133.665552, -0.924611, 11.249605, -1.420959, -1.208075, 0.688913, -0.622310, 31.636856, 31.897354, 68.593658
1648228133.698930, 1.808969, 14.256573, -3.557933, -0.631850, 0.967086, -0.385437, 29.970123, 30.519058, 69.337585
1648228133.732239, 2.857779, 12.797008, 0.760159, 0.206284, 1.137375, -0.190174, 27.606506, 30.647202, 68.248520
1648228133.765554, 2.770540, 14.795568, -3.626168, 0.993784, -0.027064, 0.124949, 26.625793, 31.691833, 67.791016
1648228133.798897, 4.679018, 14.820856, 0.977283, 2.014183, -0.118401, 1.012158, 25.921890, 34.226288, 66.833633
1648228133.832238, -1.674295, 11.801918, 0.648080, 3.318233, -1.705461, 1.059234, 27.317734, 39.805069, 65.086166
1648228133.865567, -6.614730, 14.187590, 3.399018, 2.854676, -1.345327, 0.336685, 28.702011, 43.065582, 63.147766
1648228133.898894, 0.092476, 15.673192, 3.202843, 2.171726, 0.085511, 0.844657, 29.488586, 45.856613, 60.473282
1648228133.932233, -1.540818, 14.541034, -2.268506, 3.140221, 0.128709, 0.742852, 31.895645, 49.705643, 55.253220
1648228133.965626, -4.576217, 10.174609, 2.166453, 1.769534, 0.698633, 0.085488, 32.845184, 51.211441, 51.143448
1648228133.998886, -1.474080, 6.417209, 2.024597, 0.777130, 1.200855, 0.919762, 33.850281, 52.404434, 49.290756
1648228134.032320, -0.444124, 4.581754, 3.046622, 0.843983, 0.447045, 1.431826, 36.002197, 53.743546, 47.113327
1648228134.065579, -0.344316, 2.919729, 3.262698, 1.614972, -2.152311, 0.914633, 38.687943, 54.832321, 44.813599
1648228134.098888, -0.360477, 1.666215, 3.931279, 0.852312, -3.166876, 0.554069, 39.404434, 55.340775, 44.253784
1648228134.132227, -2.851943, 2.347365, 2.583344, -0.477847, -3.010785, 0.029518, 39.265274, 55.619049, 45.317200
1648228134.165555, -3.212270, 4.107253, 0.229993, -1.309729, -2.158608, -0.026238, 38.377548, 55.309021, 48.767944
1648228134.198952, 0.918775, 19.926342, -29.786263, 2.605695, 0.919904, 0.408143, 38.581406, 55.445007, 46.232239
1648228134.232228, 4.275895, 22.158037, -9.863812, 0.926789, -1.540732, 0.361879, 38.589523, 55.240723, 44.443497
1648228134.265584, -1.506102, 4.043358, -4.632780, 0.531868, 1.142131, 0.716707, 40.548096, 55.633499, 43.080307
1648228134.298930, -1.962647, -0.326509, -5.705532, -0.276393, -0.352236, -0.072699, 41.004349, 55.446426, 42.288147
1648228134.332219, 5.919963, 19.508853, 7.000047, -1.805070, -2.520804, 0.242212, 40.629059, 55.055527, 45.427002
1648228134.365599, -3.543119, 20.808755, 4.189404, 1.265785, 1.123407, -1.855266, 39.028931, 54.242584, 44.051590
1648228134.398914, -4.794538, 1.431433, 0.763152, -0.946285, -2.963189, -0.344312, 37.303452, 53.076340, 44.776230
1648228134.432228, -2.309656, 7.453449, 8.440758, -4.010578, 3.178801, -0.284560, 36.762558, 52.361420, 48.270157
1648228134.465395, 0.658555, 17.244237, 2.986318, -4.474428, 2.357739, 0.274803, 36.464783, 51.404068, 52.777344
1648228134.498902, 1.234211, 15.982493, -1.062277, -1.103819, -0.387110, 0.066741, 37.019211, 51.007828, 55.549316
1648228134.532035, 2.340931, 5.650166, 1.924190, -1.901063, -2.131126, -0.126299, 37.458679, 50.182770, 58.372101
1648228134.565559, -0.926855, 5.191677, -1.813907, -2.136634, -0.062468, -0.241081, 37.442139, 48.871262, 61.775208
1648228134.598894, -2.028188, 6.561609, 0.082450, -2.138271, 1.395982, -0.240013, 36.220886, 47.040390, 64.152435
1648228134.632244, -0.982969, 6.557569, 0.641945, -1.739754, 1.524691, -0.449694, 34.595657, 45.493805, 65.374008
1648228134.665563, 0.557550, 10.083031, 2.321328, -1.241842, 1.248461, -0.548568, 32.927689, 43.828125, 65.848236
1648228134.698894, -1.443853, 9.240870, 0.117017, -1.862039, 0.139456, -0.502402, 31.675491, 41.728394, 67.602051
1648228134.732228, -0.431854, 10.963648, -3.036895, -1.048855, 0.986824, -0.462073, 30.503906, 40.018463, 67.982712
1648228134.765636, 1.996465, 12.389395, 0.053570, -0.770110, 2.023669, -0.381976, 28.704391, 38.566818, 67.318298
1648228134.798908, 3.086276, 13.727155, -0.522235, -0.273983, 0.614159, -0.235071, 27.440781, 37.525757, 66.636948
1648228134.832243, 4.669292, 13.751845, -1.824681, 0.546889, 0.225374, 0.126122, 26.370331, 36.547287, 65.894760
1648228134.865559, 5.333832, 14.988451, -1.419762, 1.836102, -1.019318, 1.031646, 27.019547, 37.284622, 65.271194
1648228134.898888, 2.039710, 18.214039, 2.558803, 3.083075, -1.389797, 1.369284, 28.520065, 39.412247, 64.329468
1648228134.932229, -5.778855, 15.308376, 5.650166, 3.334936, -0.895070, 0.823755, 29.671783, 42.981720, 61.697388
1648228134.965567, -7.233033, 13.500604, 1.291073, 3.155769, -0.662274, -0.058536, 29.914413, 44.775177, 59.377182
1648228134.999001, -5.802198, 11.283274, -1.721730, 3.458563, -1.532297, -0.305489, 29.762833, 46.148422, 57.611740
1648228135.032225, -4.597466, 8.517372, -1.124227, 2.311278, 2.239870, -0.227127, 29.420013, 47.868607, 53.032333
1648228135.064934, -0.375291, 7.895479, 2.712182, 0.667560, 3.293928, 0.609002, 29.178955, 48.954315, 49.886566
1648228135.098071, 0.551115, 7.275829, 1.593042, 1.097169, 0.822473, 1.076599, 30.162018, 50.449326, 48.405853
1648228135.132230, 0.062100, 5.063437, 2.436998, 3.008553, -2.046193, 0.341851, 31.079803, 51.854324, 45.954315
1648228135.165700, -0.463877, 2.662053, 1.948731, 1.476833, -1.429519, 0.123456, 30.890060, 52.678604, 43.846497
1648228135.198892, -2.099416, 1.704522, 2.335095, 0.105326, -1.534764, -0.193768, 30.268036, 53.108948, 44.521759
1648228135.232233, -0.708235, 2.656516, 1.628955, -1.372648, -1.771018, 0.082696, 29.297119, 53.404373, 46.937973
1648228135.265563, 0.832584, 4.783765, -1.447445, -2.221783, -1.439308, 0.861137, 29.654510, 53.948593, 52.983749
1648228135.298896, -4.425382, 20.083910, -35.156008, 1.319836, 0.657444, 0.539471, 29.841827, 55.168488, 53.834518
1648228135.332235, 3.290082, 25.318533, -7.339276, 0.843392, 0.465707, 1.173962, 30.517273, 56.648575, 53.800995
1648228135.365564, -3.641880, -0.045340, -9.074623, 0.420389, 0.918188, 0.440280, 32.303299, 59.807175, 52.024307
1648228135.398905, -3.088819, 9.883264, 14.048427, -1.352216, -1.394244, -0.419583, 31.738602, 60.916412, 53.250671
1648228135.432250, -3.079392, 21.452346, -9.265112, -0.730274, 0.551794, -1.339118, 30.340607, 61.326447, 55.996918
1648228135.465636, 0.119261, 13.271658, 7.033865, -0.391542, 0.069317, -0.114505, 27.827164, 61.695068, 55.000534
1648228135.498913, -1.454627, 4.911705, 6.849212, -2.829078, -0.089384, 0.547117, 28.956375, 62.238678, 58.757141
1648228135.532284, -0.737713, 12.065879, 3.078943, -3.548134, 0.258103, 0.272087, 29.253128, 61.561401, 64.196686
1648228135.565563, -0.317381, 12.759000, -3.775207, -1.163963, 1.069895, -0.063194, 28.822845, 61.491318, 66.846985
1648228135.598479, -0.819266, 9.512313, 1.032499, -1.488929, -1.214184, -0.153581, 28.775497, 61.243195, 69.778854
1648228135.632232, -1.508946, 6.571186, -0.783652, -2.285020, -0.308608, 0.087981, 29.243225, 60.281754, 73.509338
1648228135.665566, -1.118541, 6.337452, -1.288679, -1.858830, 1.474531, -0.124605, 28.178955, 59.347107, 75.913132
1648228135.698923, 0.655712, 9.229498, 0.382324, -1.754023, 1.314291, -0.204905, 25.945847, 57.926819, 78.091156
1648228135.732245, 0.562488, 9.061904, -0.478391, -1.282821, 1.492561, -0.103009, 23.981567, 57.668365, 78.692139
1648228135.765565, -0.022595, 8.404396, 1.991976, -1.441871, 0.851483, -0.465354, 22.269836, 57.213684, 79.769333
1648228135.798900, -0.697162, 8.035839, 1.173308, -1.902920, 0.500536, -0.652585, 19.524673, 54.978760, 82.766769
1648228135.832230, 0.973393, 11.059266, -2.597709, -1.368206, 0.600182, -0.582990, 17.734421, 53.706329, 84.710693
1648228135.865467, 2.227056, 12.974478, -2.842815, -0.420030, 0.693169, -0.219178, 16.107529, 54.282486, 85.099594
1648228135.898940, 1.170914, 13.122919, -0.341473, 0.139726, 0.911069, -0.165537, 14.382263, 55.975220, 84.277985
1648228135.932237, 0.273837, 15.307628, -3.153762, 0.684617, 0.379392, 0.004147, 12.779587, 59.152084, 81.758499
1648228135.965623, 3.191471, 14.017003, 0.389058, 2.112578, 0.232284, 0.697593, 13.359482, 63.830719, 77.645065
1648228135.998909, 1.663372, 12.614300, 1.034445, 3.146410, -0.766466, 1.028303, 16.023895, 69.820312, 71.810898
1648228136.032249, -4.841674, 14.789582, 3.025223, 3.120573, -0.890372, 0.584136, 19.391571, 75.875443, 63.534424
1648228136.065632, -3.643077, 15.782877, 2.539799, 2.362964, -0.175527, 0.853140, 22.266022, 78.383652, 57.059372
1648228136.098902, -1.766771, 12.461221, 0.830788, 2.170132, 0.835656, 0.898961, 25.316360, 79.856003, 50.719467
1648228136.132235, -1.275810, 10.988637, 0.872687, 1.687265, 0.870658, 0.818265, 29.320419, 80.686829, 42.875320
1648228136.165574, 0.120309, 7.770830, 0.674716, 1.554287, -0.705167, 0.832255, 32.222168, 80.810394, 39.297607
1648228136.198901, -0.816273, 7.517644, 2.565686, 1.724402, -1.416233, 0.536454, 34.133270, 80.475616, 36.317734
1648228136.232236, -1.134702, 5.401469, 2.514810, 2.394550, -2.055385, 0.281261, 35.561493, 79.766022, 32.459229
1648228136.265573, -2.133683, 2.834435, 1.971475, 2.028342, -1.977215, 0.071668, 35.664490, 78.598221, 26.694626
1648228136.298917, -2.749441, 2.391658, 1.770063, -0.096972, -1.196636, -0.253015, 34.679398, 78.259735, 25.229340
1648228136.332239, -1.457171, 2.925266, 1.309329, -0.938705, -1.132532, -0.095100, 33.515427, 79.063629, 26.524826
1648228136.365589, 0.932841, 5.446958, -1.837400, -1.452157, -1.392418, 0.328074, 32.689835, 81.074860, 29.948105
1648228136.398937, -0.660500, 12.923751, -17.020829, -0.890145, 0.791818, 0.473900, 33.997238, 82.552933, 31.584381
1648228136.432188, 1.626112, 27.804612, -19.538631, 1.348298, -2.238933, 0.458062, 34.332840, 81.865936, 28.559952
1648228136.465577, -0.160262, 2.951302, -4.452916, 0.665854, 0.142857, 0.842563, 37.676559, 81.348877, 25.574600
1648228136.498911, -2.642450, 0.527622, -3.397223, -0.030995, -0.462054, -0.155951, 38.108734, 81.365829, 24.708954
1648228136.532324, -0.360327, 12.656049, 9.139715, -2.524701, -0.530640, -0.629581, 37.131882, 82.038269, 29.641144
1648228136.565576, -9.884162, 25.358785, -15.267225, 2.075976, -0.312395, -3.032784, 32.043015, 79.282928, 26.237854
1648228136.598912, 1.049109, 5.237765, 8.746916, -0.410605, -0.556563, -1.047393, 29.000977, 77.534164, 26.389572
1648228136.632258, 0.135721, 5.186439, 4.336647, -3.163542, 0.146557, 1.285986, 31.335587, 78.903824, 30.605103
1648228136.665584, -3.483115, 13.899388, 3.124433, -3.743384, -2.069005, 0.539857, 33.791092, 80.684265, 38.883087
1648228136.698413, -1.859098, 11.695525, -1.918953, -1.619425, -2.752647, 0.438805, 35.197281, 81.078735, 47.667084
1648228136.732266, -1.520318, 7.387608, 2.859575, -1.731045, -0.423389, 0.734230, 36.794037, 80.840454, 51.144165
1648228136.765616, -1.927632, 3.284994, 0.370503, -1.751676, 2.677577, 0.166855, 38.486191, 80.767319, 54.549805
1648228136.798912, 0.467318, 10.989984, -0.086640, -2.094330, 1.833526, -0.283047, 36.551346, 79.580933, 57.842010
1648228136.832289, 0.470610, 5.390545, 0.111480, -2.506325, -0.660727, 0.580333, 38.115814, 78.983215, 62.829193
1648228136.865462, 1.046565, 6.832004, -0.571616, -1.924130, 0.918083, 0.986406, 39.702255, 78.165222, 66.861404
1648228136.898918, 0.355539, 8.287828, 1.435324, -1.719149, 1.894806, 1.084141, 41.653351, 77.994812, 70.250916
1648228136.932241, -0.573711, 12.111967, 2.907908, -1.077679, 1.424998, 0.249507, 41.536926, 77.877411, 71.997482
1648228136.965580, -0.236577, 12.958616, -2.187552, -1.416739, 0.100777, -0.320455, 41.160980, 76.953400, 74.259644
1648228136.998926, 0.386215, 11.232547, -1.353921, -0.453371, -0.298834, -0.198508, 41.465347, 76.021759, 75.425095
1648228137.032289, 0.538546, 11.378443, 3.383905, -0.095641, 0.934980, 0.319218, 42.181564, 76.135635, 74.832428
1648228137.065588, 2.115128, 14.442573, -3.245789, 0.872210, 1.823553, 0.595085, 42.264587, 76.406021, 72.048538
1648228137.098916, 2.828300, 14.188338, -0.508469, 1.388279, -0.442918, 0.772937, 44.649216, 76.925552, 68.770859
1648228137.132283, 0.002843, 15.393968, -0.032771, 2.428768, -1.133877, 0.572727, 49.153030, 77.576965, 62.088730
1648228137.165011, -2.625691, 15.210962, 3.146580, 3.131774, -0.472170, -0.484573, 49.974777, 77.019562, 55.056519
1648228137.198908, -0.573262, 13.205818, 5.146935, 2.224046, -1.031725, -0.511659, 50.028091, 75.545227, 49.561752
1648228137.232258, -3.623923, 11.363480, 2.018312, 2.248718, -1.250767, -0.811458, 49.991196, 72.965591, 44.240829
1648228137.265593, -3.516484, 9.584438, 2.845658, 2.252132, -1.122268, -0.955617, 49.054977, 70.613846, 40.357941
1648228137.298938, -0.967557, 8.237400, 1.168221, 2.542542, -0.524445, 0.195358, 49.330002, 68.201599, 36.710266
1648228137.332247, -1.333121, 6.573281, 2.490269, 3.045368, -1.363953, 0.729896, 51.231125, 65.835312, 32.709808
1648228137.365596, 0.188693, 5.223400, 3.181445, 3.210780, -1.174829, 0.983857, 53.591537, 62.261398, 26.428131
1648228137.398916, 1.481113, 4.561702, 2.201319, 2.615057, 1.685245, 1.129742, 56.772537, 59.099960, 22.420273
1648228137.432331, 1.955614, 4.657022, 2.207604, 0.267059, 1.179433, 0.452743, 60.165710, 56.950623, 20.880051
1648228137.465664, -0.911293, 5.704934, 0.332046, -1.287291, -0.346054, 0.006939, 61.454361, 56.820770, 22.813660
1648228137.498925, -1.428141, 7.128885, -2.465429, -0.735063, -1.032864, 0.020816, 61.141937, 56.797623, 24.361496
1648228137.532254, -0.684442, 9.645041, -7.291242, -0.590696, 2.843148, 0.506014, 62.920700, 56.206604, 25.614944
1648228137.565381, 2.707842, 14.201058, -22.628498, 0.777493, 2.546181, 0.718554, 67.797623, 54.264496, 27.615173
1648228137.598980, -0.478990, 8.323891, -5.595698, -1.290197, -3.486774, 0.252933, 67.576157, 53.106903, 27.975113
1648228137.632256, -2.000355, 11.515661, -6.499210, 0.492074, -1.101374, 0.512357, 67.377655, 52.012802, 29.837051
1648228137.665582, -5.219958, 11.244817, 8.325238, -0.769450, -1.969615, -0.130981, 67.253647, 50.822601, 30.195282
1648228137.698923, -1.052850, 16.486473, -5.247043, -0.635444, 0.882705, -0.797305, 66.991562, 50.858505, 32.740189
1648228137.732248, 2.055422, 8.796147, 5.513098, -0.831481, -1.986141, -0.517958, 66.253326, 50.442673, 33.711136
1648228137.765586, 2.063951, 10.096348, 4.204218, -2.586863, 0.077896, 0.132512, 66.292542, 50.609604, 36.787735
1648228137.798914, 0.739808, 9.976189, 0.687286, -1.893096, 0.840627, 0.414907, 67.746094, 50.378403, 41.017502
1648228137.832278, -0.938976, 9.519196, 0.513556, -1.290163, 0.693655, -0.224691, 68.021362, 50.334045, 43.719376
1648228137.865587, -0.829142, 9.139865, -0.270694, -1.645667, 0.489472, -0.453538, 67.851532, 50.114334, 45.992081
1648228137.898944, -0.167594, 8.090606, -0.266056, -1.902890, 0.271944, 0.148040, 68.325592, 49.596786, 49.837616
1648228137.932254, -0.084845, 7.500136, 0.515352, -1.471491, -0.500055, 0.751268, 69.441376, 48.891632, 51.871323
1648228137.965627, 1.234660, 9.024794, -0.546925, -0.707028, 0.819916, 1.340355, 71.152863, 47.654266, 53.607697
1648228137.998924, 1.749114, 9.128193, -0.740856, -1.367158, 0.298299, 1.161090, 73.624542, 45.831970, 55.494186
1648228138.032260, 0.624887, 9.443330, -0.926107, -0.810634, 0.554220, 0.917197, 74.959518, 44.284790, 57.115814
1648228138.065605, 0.384569, 9.374347, 1.132906, -0.759792, 1.697918, 0.308195, 75.491898, 43.091599, 58.716980
1648228138.098260, 1.331775, 9.117270, 0.272939, -0.725645, 2.300055, -0.128757, 75.138077, 42.125244, 60.946747
1648228138.132261, 0.498443, 9.617508, -1.841291, -0.695295, 1.461993, -0.633961, 73.793304, 41.347290, 63.375961
1648228138.165627, 0.036063, 11.552921, 0.332046, -0.525424, 0.460648, -0.780086, 73.069687, 40.829712, 64.073868
1648228138.198920, 0.065092, 9.464279, 0.314089, -0.139298, 1.046448, -0.315964, 72.333664, 40.317993, 64.870697
1648228138.232273, 1.061080, 9.532813, -1.943344, 1.006590, 2.290507, -0.037703, 70.677795, 40.268372, 65.243744
1648228138.265608, 2.669834, 13.132645, -3.460370, 2.052517, 1.423372, 0.099889, 69.562332, 40.645691, 64.528778
1648228138.298918, -3.210176, 16.163555, 1.152509, 2.848809, 1.838974, -0.018547, 68.495834, 41.238571, 62.885849
1648228138.332288, 0.237325, 16.843957, 3.256114, 3.259889, 0.634391, 0.665965, 67.641388, 42.486938, 59.536270
1648228138.365588, 2.352602, 17.567155, 4.256442, 3.137280, 0.373478, 1.509284, 68.153580, 43.114319, 56.795074
1648228138.398919, -0.042946, 16.535703, 2.306963, 2.708273, 0.123350, 1.824070, 68.849380, 43.052094, 54.173645
1648228138.432248, 0.681599, 13.536517, 3.727323, 1.804250, -0.010086, 2.011009, 69.695114, 43.191437, 52.054459
1648228138.465594, 0.476147, 9.866804, -1.306785, 2.278886, -0.483401, 2.317021, 72.184311, 42.573822, 49.384079
1648228138.498938, -1.837699, 9.018658, 1.697639, 1.910842, -0.702107, 1.799508, 73.568253, 42.307144, 46.721588
1648228138.532261, -1.803432, 7.186047, 1.721730, 1.111014, -1.168339, 1.218681, 74.419281, 41.975113, 44.389267
1648228138.565595, 0.841113, 5.738901, 0.618153, 0.633319, 0.513187, 0.996966, 75.460190, 41.712936, 43.161713
1648228138.598950, -1.321450, 5.648969, -0.473304, -0.235714, 0.387094, 0.450293, 76.108002, 41.187805, 43.622070
1648228138.632276, 2.361730, 5.782895, -3.447800, -0.452874, 0.696194, -0.173561, 75.976486, 41.586349, 44.555695
1648228138.665588, 3.653701, 6.309170, -4.556615, -0.594924, 1.022172, 0.031937, 76.030945, 41.765793, 45.912125
1648228138.698921, 2.471415, 7.103596, -5.650914, -0.595729, 0.931591, -0.225596, 75.669769, 41.931412, 47.467056
1648228138.732263, 4.107851, 7.805397, -5.831677, -0.054663, 0.546415, 0.015764, 75.426117, 42.158508, 48.076355
1648228138.765590, 2.030732, 9.085696, -3.632303, -0.491202, 0.231318, 0.088839, 75.505081, 42.357040, 48.944046
1648228138.798939, 1.870620, 9.052327, -3.484461, -1.145352, 0.183614, 0.196557, 75.507446, 42.294754, 50.775360
1648228138.832255, 3.077896, 8.894160, -2.981679, -1.298250, 0.284685, 0.397793, 75.809570, 42.317932, 52.303864
1648228138.865602, 5.079299, 9.822362, -2.379388, -1.265461, 0.937612, 0.708654, 76.443970, 41.864899, 54.034546
1648228138.898944, 1.199944, 8.947431, -1.067215, -1.527014, 0.481702, 0.535217, 77.623276, 41.433624, 56.693466
1648228138.932258, 4.466682, 10.352827, -2.546982, -1.472367, 0.380337, 0.378035, 78.412094, 41.303558, 58.204712
1648228138.965593, 0.458939, 10.814908, -2.324471, -1.249088, 0.218188, 0.011543, 79.287308, 40.781662, 59.366974
1648228138.998934, 0.519093, 10.434978, -3.618836, -0.387560, -0.722803, -0.899770, 79.251373, 40.088943, 58.824631
1648228139.032292, 3.813365, 9.458294, -3.484461, 0.038169, -0.562550, -0.991228, 77.974884, 40.438049, 59.384842
1648228139.065595, 6.734141, 9.476101, -8.779537, 1.843840, -0.645444, -0.933389, 76.754654, 41.805176, 58.634277
1648228139.098932, 8.541165, 9.609727, -3.343952, 2.203535, -0.953173, -0.691806, 75.110306, 44.585602, 54.842102
1648228139.132335, 8.755147, 7.764845, -1.570147, 1.445933, -0.866329, -0.577236, 74.084106, 46.134003, 52.645523
1648228139.165593, 11.170896, 7.279421, -8.094347, 2.550262, -1.194523, 0.073537, 73.823914, 47.087906, 49.282028
1648228139.198929, 10.467300, 7.676409, -4.401889, 3.667468, -0.978882, 0.633217, 74.270126, 47.533066, 44.500000
1648228139.232304, 7.674613, 7.587225, -1.054496, 3.106613, -1.202999, 0.902518, 75.468216, 46.602051, 38.230576
1648228139.265607, 6.924031, 6.771401, -2.077269, 2.743849, -1.342846, 1.134050, 75.988831, 45.450470, 34.104996
1648228139.298929, 5.792921, 6.714239, -3.331382, 2.397886, -1.533971, 1.470865, 76.643509, 43.905502, 29.796326
1648228139.332269, 2.991106, 6.799383, -3.166032, 1.870069, -0.357058, 1.134670, 78.021530, 41.236008, 26.402222
1648228139.365624, 3.000533, 6.448633, -4.073734, 1.377893, -1.113329, 0.994026, 78.302017, 39.801682, 24.343460
1648228139.398832, 3.234417, 6.688202, -5.794267, 1.569992, -1.017915, 1.169933, 78.368927, 38.221924, 21.920990
1648228139.432276, 2.268506, 6.076035, -4.743811, 0.569732, -0.077912, 1.104909, 79.289291, 36.264679, 20.716660
1648228139.465598, 0.563086, 5.957073, -7.432350, 0.710234, 0.042996, 0.832403, 80.048676, 35.222153, 20.257111
1648228139.498460, 1.519720, 5.053412, -6.432621, 0.551610, 0.031418, 0.616818, 80.606339, 34.139618, 19.695435
1648228139.532296, 3.224241, 4.866514, -7.735965, 0.155125, -0.158960, 0.699708, 81.151794, 33.398117, 19.224716
1648228139.565612, 3.268085, 4.076727, -8.883685, 0.416481, -0.102287, 0.685437, 81.511383, 32.488541, 19.068405
1648228139.598657, 3.803040, 3.885041, -10.416573, 0.858671, -0.248104, 0.910183, 81.658218, 31.182327, 17.935577
1648228139.632349, 1.040430, 3.147028, -8.735394, 0.765866, 0.145054, 0.772011, 82.265686, 30.001740, 17.587570
1648228139.665624, 1.721581, 2.896385, -7.147291, 0.161033, 0.144167, 0.439875, 82.858414, 28.874466, 17.195358
1648228139.699015, 3.314024, 2.436998, -7.983615, 0.289847, -0.475026, 0.790699, 82.960190, 28.065582, 16.592514
1648228139.732272, 2.249352, 2.187253, -7.558495, 0.110749, -0.480001, 0.701789, 82.903839, 27.344116, 16.209702
1648228139.765649, 2.694824, 1.953519, -7.521085, -0.081408, -0.088286, 0.474589, 83.242538, 26.862381, 15.978729
1648228139.798931, 2.748244, 2.385672, -7.538443, -0.175604, 0.047091, 0.230023, 83.424484, 26.658646, 15.997589
1648228139.832278, 3.264195, 2.191443, -8.333019, -0.217680, -0.130019, 0.389382, 83.782104, 26.492264, 16.154724
1648228139.865616, 3.577835, 2.682703, -8.787169, -0.452028, -0.150091, 0.541013, 83.855621, 26.225204, 16.415100
1648228139.898940, 3.311031, 2.738518, -10.022727, -0.304923, -0.163183, 0.417995, 84.025879, 26.159256, 16.797195