SamplingTime, AccelerationX, AccelerationY, AccelerationZ, GyroX, GyroY, GyroZ, MagneticFieldX, MagneticFieldY, MagneticFieldZ
1648228034.712141, 6.059575, 7.353790, -4.223222, 0.363695, -0.189483, 0.122420, 75.970627, 24.186310, 23.154037
1648228034.745375, 6.202030, 7.220763, -4.434510, 0.467836, -0.042639, 0.257149, 75.779968, 23.743378, 22.778595
1648228034.778700, 6.374861, 7.006482, -4.652682, 0.569786, -0.024613, 0.326041, 76.070496, 23.216232, 22.512650
1648228034.812032, 5.995680, 7.208343, -3.926640, 0.650792, -0.199682, 0.552331, 76.086990, 22.202682, 22.078033
1648228034.845360, 5.223849, 7.048679, -5.299565, 0.714137, -0.638413, 0.280135, 75.770035, 21.814743, 20.880325
1648228034.878757, 5.758205, 6.496217, -4.869806, 0.485889, -0.463486, 0.079726, 75.377777, 21.282104, 20.381058
1648228034.912035, 5.903802, 6.564003, -2.741660, 0.097089, -0.471319, 0.304502, 74.991135, 21.081543, 19.491684
1648228034.945378, 6.208763, 5.876119, -3.851822, -0.358798, -0.558829, 0.361563, 74.676514, 21.035187, 19.353882
1648228034.978701, 5.714660, 5.702091, -5.103540, -0.501263, -0.561100, 0.202798, 74.035538, 21.587723, 19.093414
1648228035.012036, 5.447108, 5.284452, -4.119972, -0.712348, -0.484351, -0.011163, 73.541901, 22.296051, 18.912231
1648228035.045367, 5.620239, 6.407781, -4.274997, -0.865964, -0.399283, -0.098351, 72.877045, 23.395370, 18.919144
1648228035.078735, 5.360468, 5.826290, -3.668815, -0.973769, -0.392546, -0.350169, 72.313339, 24.331833, 19.358551
1648228035.112035, 4.033631, 5.839159, -3.583821, -1.230023, -0.242795, -1.004878, 71.321472, 25.779160, 19.646347
1648228035.145392, 3.234267, 5.798756, -4.317943, -1.274347, -0.173927, -2.128632, 69.110306, 28.413559, 21.040649
1648228035.178813, 2.758120, 7.083395, -3.831620, -1.285206, -0.617067, -2.192236, 67.050262, 30.280502, 21.532867
1648228035.212002, 2.916736, 7.684789, -4.000262, -0.985470, -0.705747, -1.881302, 64.675079, 31.451233, 22.063019
1648228035.245406, 3.546561, 8.570793, -3.958513, -1.068588, -0.857549, -2.181255, 62.110519, 32.874710, 22.769501
1648228035.278710, 4.858434, 8.260894, -3.444358, -0.967951, -0.362241, -1.318748, 59.247925, 34.072021, 23.879425
1648228035.311193, 3.199102, 8.673295, -3.761889, -0.332244, -0.920826, -0.288834, 57.620605, 34.784821, 24.189774
1648228035.345429, 1.524957, 9.461436, -4.415357, -0.225570, -0.986572, 0.070171, 56.497620, 34.791626, 24.569244
1648228035.378715, 2.164807, 10.149769, -3.306692, -0.661822, -0.216864, 0.100486, 55.541473, 35.156952, 25.204437
1648228035.412073, 2.527379, 10.840646, -2.341978, -0.721464, -0.889833, -0.009930, 54.746292, 35.941895, 25.745636
1648228035.445406, 2.723255, 9.744101, -2.007688, -0.802869, -1.054979, -0.155816, 53.544281, 36.590454, 26.618393
1648228035.478699, 1.726369, 8.579921, -2.041057, -1.267685, -1.081853, -0.436606, 51.425476, 37.656967, 28.720230
1648228035.512035, 1.489044, 8.287230, -2.396596, -1.097661, -1.003541, -0.279901, 50.094788, 38.511047, 30.152466
1648228035.545440, -0.734272, 8.221090, -5.633706, 0.006807, -0.524786, -0.454986, 48.919052, 39.006439, 30.659134
1648228035.578690, -3.588310, 17.228675, 4.314950, -0.926377, -0.510195, -1.796605, 45.976929, 39.298813, 32.360703
1648228035.612042, -0.469563, 8.287230, 3.114707, -0.778843, -0.595979, -0.473636, 44.565414, 39.593552, 33.839172
1648228035.645425, 0.698209, 10.203339, 3.087622, -0.935607, -1.209176, -0.374404, 43.589157, 40.124954, 35.141251
1648228035.678251, 1.735497, 11.245715, -0.592715, -0.449886, -0.566994, -0.364895, 42.499191, 40.400238, 36.285187
1648228035.712052, -1.694646, 9.030779, 0.949600, -0.617560, -0.290187, -0.132204, 41.765350, 41.185928, 37.544205
1648228035.745397, -1.337760, 8.812308, 2.899079, -0.893162, 0.182434, -0.033468, 41.376617, 41.705414, 38.977097
1648228035.778717, -1.732953, 9.217078, 0.769885, -0.950462, 0.401197, -0.244631, 40.830200, 42.006149, 40.247147
1648228035.812048, 0.650026, 9.770737, 0.752827, -0.884318, 0.380526, -0.315699, 40.036911, 42.360092, 41.421951
1648228035.845383, 1.551892, 9.420585, 1.120187, -0.892343, 0.081132, -0.218423, 39.457474, 42.429855, 42.612259
1648228035.878709, 1.750161, 9.555708, 0.626832, -0.916851, 0.123473, -0.082535, 39.025131, 42.971069, 43.866486
1648228035.912032, -0.792930, 9.006238, 0.635212, -0.872528, 0.059024, -0.237777, 38.070587, 43.422089, 45.914200
1648228035.944714, -1.507300, 9.038859, -0.024840, -0.688658, 0.103873, -0.572554, 37.233414, 43.700607, 47.415710
1648228035.978745, -0.128988, 10.524162, -0.142605, -0.570841, 0.519804, -0.616542, 35.846283, 43.628494, 48.063004
1648228036.012033, 1.487996, 10.128670, -0.349703, -0.390333, 0.791752, -0.518738, 34.691757, 43.592422, 48.657562
1648228036.045449, 2.361431, 11.204415, -0.533907, 0.025175, 0.264131, -0.436660, 33.198273, 44.007614, 49.768539
1648228036.078744, 3.186383, 11.670835, 0.131232, 0.127863, 0.167517, -0.333328, 31.767288, 44.736023, 50.419800
1648228036.112033, 3.188777, 13.436559, -0.172981, 0.370986, -0.135285, -0.101056, 30.704666, 45.747543, 51.554962
1648228036.145370, 3.561824, 13.617022, -1.174954, 1.346768, -0.369838, 0.630273, 30.649521, 48.549545, 51.640015
1648228036.178756, 1.462408, 12.213571, -0.482132, 2.305697, -0.256055, 1.369618, 31.884552, 52.270630, 50.357025
1648228036.212049, -3.390190, 13.141623, -1.650054, 2.889675, -1.426683, 1.052872, 33.600525, 55.791641, 48.155746
1648228036.245381, -3.490746, 15.659276, 0.027384, 2.901067, 0.353188, 1.071818, 36.799881, 59.942383, 42.831177
1648228036.278703, -2.279130, 13.107356, 2.776825, 2.435743, 1.625186, 1.012145, 39.537247, 62.393524, 38.004730
1648228036.312041, -2.023549, 10.076746, 2.197428, 1.933365, 1.415537, 1.227303, 43.117859, 64.261688, 33.449112
1648228036.345381, -0.017657, 8.215853, -0.383671, 1.159537, 0.027388, 1.338151, 48.221252, 65.810623, 29.878845
1648228036.378705, 1.591246, 7.623288, -0.046537, 1.217486, -0.454621, 1.517184, 51.904755, 66.547516, 26.903809
1648228036.412032, 1.201141, 7.535002, 1.150115, 1.612170, -2.248820, 1.198879, 54.409485, 66.651627, 23.872314
1648228036.445388, -0.181211, 6.378602, 1.820341, 1.381018, -2.364498, 0.623378, 54.930969, 66.565125, 20.279434
1648228036.478704, -3.089568, 4.550779, 1.343746, 0.570510, -1.806541, 0.603393, 55.128677, 66.752151, 17.016891
1648228036.512125, -3.375675, 4.015226, 0.605134, -0.439148, -0.510457, 0.374468, 56.003983, 67.733856, 17.098526
1648228036.545438, -2.058565, 3.722684, 0.282366, -1.459325, -0.301506, 0.129225, 56.457108, 69.796051, 18.822739
1648228036.578716, -0.487370, 5.851728, -2.314744, -2.199741, -0.191335, -0.150926, 56.875397, 73.534546, 23.643082
1648228036.612044, 3.663129, 11.401936, -14.686781, -0.421667, 0.032744, 0.176336, 57.340561, 75.844589, 25.603409
1648228036.645385, 7.116465, 21.329494, -18.741362, 0.944575, -0.791980, 0.218879, 58.263397, 76.469711, 23.122726
1648228036.678707, 1.168221, 12.773365, -5.179855, 1.061138, -0.496162, 0.600546, 60.538361, 75.769852, 19.237961
1648228036.712048, -1.179144, 2.400038, -5.067178, 0.071425, 0.171654, 0.500780, 62.844940, 75.973129, 17.054214
1648228036.745369, 0.132429, 8.476072, 0.651522, -2.021968, -1.138534, 0.396900, 63.911423, 77.342346, 19.261917
1648228036.778713, 0.207398, 17.419014, -7.445668, 0.591281, 1.592710, -1.099429, 63.977737, 78.986465, 21.353897
1648228036.812052, -3.626617, 8.617181, 4.431368, -0.451537, -0.555778, -1.097843, 61.515305, 79.281006, 20.265579
1648228036.845374, -4.350713, 5.108179, 5.220557, -2.316554, 0.803951, -0.587479, 60.850281, 81.105377, 24.000381
1648228036.878709, -0.308852, 12.007071, 3.609109, -3.054734, 1.330819, -0.927535, 60.249146, 83.426514, 30.556366
1648228036.912038, 2.385373, 14.305056, -2.991256, -1.308967, 0.410280, -0.507221, 58.782715, 84.866776, 36.517654
1648228036.945386, 0.317531, 8.678981, 1.398513, -1.161508, -0.682239, -0.570928, 57.678284, 85.577332, 38.976456
1648228036.978706, -0.663343, 7.745841, 1.168670, -2.105975, 0.339351, -0.328976, 56.532959, 85.912384, 42.748764
1648228037.012039, -0.104597, 8.203582, 0.261866, -1.701043, 1.640486, -0.318175, 55.814285, 86.589462, 48.721558
1648228037.045421, 1.573290, 9.205705, 0.988805, -1.462301, 1.296519, -0.371928, 55.315414, 86.949722, 52.185944
1648228037.078713, 2.499247, 9.685144, 0.020800, -1.023435, 1.340741, -0.142944, 54.721619, 87.037811, 54.714966
1648228037.112076, 0.118513, 8.898799, 0.134225, -1.082375, 1.223729, -0.253602, 54.437790, 87.245789, 56.907227
1648228037.145380, -1.390732, 9.440188, -0.268151, -1.167974, -0.047718, -0.603274, 53.382996, 87.477707, 60.416779
1648228037.178758, 0.702100, 8.456919, -0.046388, -0.832832, 0.632078, -0.620684, 52.084641, 87.842850, 62.371765
1648228037.212077, -0.454898, 10.329035, -0.201412, -0.792985, 0.956439, -0.560308, 50.537781, 88.022308, 64.782181
1648228037.245379, 2.633472, 11.797429, -1.506551, -0.125520, 0.541462, -0.396765, 49.024872, 88.691711, 65.868332
1648228037.278783, 2.609829, 12.602629, 0.117316, -0.191620, 0.819820, -0.075090, 49.004807, 89.306854, 66.117554
1648228037.312064, 1.282993, 13.575872, -1.845780, 0.253181, 1.080153, -0.036684, 48.821381, 90.157959, 65.522583
1648228037.345398, 4.841076, 14.586225, -0.183605, 1.012946, 0.474722, 0.488981, 50.706589, 91.439148, 62.449280
1648228037.378710, 4.746804, 10.608558, -1.068113, 2.281723, 0.070294, 1.454221, 54.988937, 92.643753, 56.416428
1648228037.412046, -4.199879, 14.098556, -1.646911, 3.229270, -1.478602, 1.298421, 60.733566, 93.056503, 48.338440
1648228037.445384, -3.611653, 15.823728, 2.568081, 2.886680, -0.382620, 1.037746, 65.809372, 91.382706, 36.026016
1648228037.478759, -2.208801, 14.308497, 3.708768, 2.456261, 0.704043, 0.938548, 69.455246, 88.786896, 29.208420
1648228037.512129, -2.122609, 13.029245, -0.487669, 2.633108, 1.801887, 0.943203, 73.503647, 85.026917, 23.110687
1648228037.545381, -1.837250, 8.315811, 0.836624, 1.536056, -0.013333, 1.019279, 76.736832, 81.141541, 18.834076
1648228037.578721, 0.319776, 7.329549, 0.989105, 1.509986, 0.250613, 1.182501, 80.933945, 75.766449, 14.510269
1648228037.612040, 0.762404, 7.093421, 1.804330, 1.807098, -1.390722, 1.125893, 82.792145, 71.692474, 10.253815
1648228037.645400, -0.703297, 4.788403, 1.885733, 1.655542, -1.973113, 0.614239, 82.336670, 67.692108, 4.862869
1648228037.678717, -1.989432, 3.198803, 1.967734, 0.657507, -1.446855, 0.513623, 81.567123, 64.130768, 0.976425
1648228037.712048, -2.654122, 2.875287, 1.822436, -0.423011, -0.872904, 0.173847, 81.411377, 63.636734, 0.008499
1648228037.745453, -0.747589, 2.705298, 1.124527, -1.907730, -1.086821, -0.047814, 81.032959, 64.911346, 1.147446
1648228037.778718, 0.366313, 4.408773, -2.560299, -2.596707, -1.014136, 0.119076, 80.637756, 68.745316, 4.721725
1648228037.812060, 4.717924, 17.821390, -27.294647, 1.111081, 0.263222, 0.709931, 82.471436, 67.477188, 3.879517
1648228037.845406, 5.828534, 17.865234, -5.886893, 0.699676, 0.005822, 0.516773, 82.712097, 63.727936, 1.161377
1648228037.878719, -1.546205, 3.241450, -7.106739, 0.376523, -0.018847, 0.112323, 84.009659, 60.742203, 1.139801
1648228037.912044, -0.626682, 11.821371, -5.004181, -1.065271, -0.270712, 0.097781, 84.835602, 59.102966, 2.857040
1648228037.945396, -2.687940, 14.086884, 5.042787, -0.166009, 0.805328, -1.396057, 83.075745, 59.607254, 4.293213
1648228037.978739, -3.261202, 7.419182, 0.687884, -0.191172, -0.160368, -0.923091, 81.955658, 59.408829, 5.168976
1648228038.012053, -2.976591, 6.387880, 6.318448, -2.293646, 1.311787, -0.807958, 81.846313, 61.560043, 9.384857
1648228038.045427, 0.459687, 11.592724, 6.351069, -3.280706, 0.796720, -0.665209, 81.692688, 64.815826, 15.668396
1648228038.078713, 1.025466, 13.715932, -2.911499, -1.442635, 0.606563, -0.493880, 81.701782, 66.321838, 20.749802
1648228038.112050, 0.676512, 9.245808, 1.640477, -1.514354, -0.829724, -0.369570, 80.659058, 67.306656, 23.923431
1648228038.145380, -1.154604, 6.835296, 0.624887, -2.212737, -0.899653, -0.421341, 79.658875, 68.445084, 27.260056
1648228038.178717, -0.867449, 6.477513, -0.688034, -2.027701, 1.086413, -0.629896, 78.765121, 69.443268, 31.621994
1648228038.212051, 2.298733, 9.705944, 0.235679, -1.627362, 1.272467, -0.633053, 78.543655, 70.039291, 35.838882
1648228038.245386, 3.505560, 9.608081, -0.836025, -1.033509, 1.965868, -0.150413, 78.816513, 69.878906, 41.351944
1648228038.278714, 0.069731, 8.554782, 0.903811, -1.349371, 0.131694, -0.521165, 78.959442, 69.639862, 43.844116
1648228038.312118, -0.863559, 8.943989, -1.981800, -1.147251, -0.038509, -0.753268, 77.861038, 69.478165, 46.386185
1648228038.344973, 0.788740, 9.498696, 0.483778, -0.711425, 0.948263, -0.713624, 76.898041, 69.037094, 49.259888
1648228038.378708, 0.274286, 11.425879, -1.266084, -0.841669, 0.604098, -0.559741, 76.366043, 68.373856, 51.892975
1648228038.412049, 3.144485, 12.733262, -0.616357, -0.041647, 0.451666, -0.191959, 76.030807, 67.567703, 53.168732
1648228038.445413, 1.647959, 12.689418, -0.442628, 0.003014, 0.915577, -0.035689, 76.479187, 66.412827, 54.043716
1648228038.478722, 3.677344, 15.271116, -4.042460, 1.028621, 0.471524, 0.160972, 76.783813, 65.268234, 53.809601
1648228038.512132, 4.563199, 12.666225, 0.536600, 2.303421, -0.060240, 1.249416, 78.363266, 63.920258, 51.111359
1648228038.545397, -0.225354, 14.127286, 1.945887, 2.820503, -1.351287, 1.336887, 81.174881, 61.536789, 44.910294
1648228038.578717, -2.986916, 15.972916, 3.770119, 2.730251, -1.467062, 1.294562, 82.597626, 59.925583, 39.764862
1648228038.612093, -5.176114, 15.883583, 0.651223, 2.577266, 0.091756, 0.870817, 83.320114, 57.786652, 35.477020
1648228038.645420, -3.959261, 10.139145, 0.480187, 2.512118, 1.212025, 0.586809, 83.565094, 56.185684, 32.273712
1648228038.678715, -2.348263, 6.075436, 0.117914, 2.090031, 0.576453, 0.836019, 84.569138, 53.849930, 28.893784
1648228038.712059, -0.366911, 7.181408, 1.449539, 1.173907, 0.235138, 0.592873, 84.776276, 52.353256, 26.793945
1648228038.745428, 0.468964, 8.058434, 1.315315, 1.674523, -0.793947, 0.660497, 84.718079, 50.969330, 24.765396
1648228038.778719, -0.461782, 6.355857, 1.921197, 2.018378, -1.700661, 0.580358, 83.582977, 48.144073, 19.835968
1648228038.812052, -1.650652, 4.510377, 2.165705, 1.027310, -1.406378, 0.535015, 82.240509, 46.388168, 16.439392
1648228038.845428, -2.315043, 2.959533, 1.579575, -0.297916, -1.074675, 0.383081, 81.323044, 45.522675, 15.241364
1648228038.878720, -1.180641, 2.751686, 0.956484, -1.420409, -1.139457, 0.332096, 80.318253, 46.617599, 16.129684
1648228038.912054, -0.008380, 5.051766, -2.274641, -2.003520, -1.539606, 0.394174, 79.434647, 47.913193, 17.812469
1648228038.945440, 4.823718, 21.265598, -24.134151, 1.104795, -1.308920, 0.778304, 79.609360, 47.422852, 17.886078
1648228038.978733, 5.413440, 17.005117, -8.174403, 0.276323, -0.421742, 0.636913, 78.387421, 46.711975, 16.062103
1648228039.012054, -1.496825, 3.890129, -6.870012, 0.381361, -0.236569, 0.200076, 77.831879, 46.644424, 15.184570
1648228039.045416, -2.053477, 13.649493, 3.163339, -0.847003, -0.747053, -0.048441, 77.201874, 47.358658, 15.879791
1648228039.078797, -8.163479, 20.762218, 3.338265, -0.227348, 0.621972, -2.473964, 74.347336, 49.308853, 16.140518
1648228039.112068, 0.511910, 8.059631, 4.535366, -0.660893, -0.432522, -0.116055, 72.154800, 51.428085, 16.619003
1648228039.145392, -0.819116, 7.775020, 9.744101, -3.284651, 0.731054, -0.125591, 72.539001, 53.523376, 20.092621
1648228039.178727, -0.868646, 14.250438, 4.149750, -3.167149, 0.488142, -0.394974, 72.059479, 56.505646, 25.094437
1648228039.212137, -0.669179, 10.609905, -5.560982, -0.741354, 0.444175, -0.373204, 71.533035, 58.056290, 28.238678
1648228039.245392, -0.177769, 9.203461, 2.198476, -2.070127, -0.829216, -0.166577, 70.344315, 59.254120, 29.979507
1648228039.278724, -0.913089, 6.232556, -1.647510, -2.080170, 0.661446, -0.299905, 69.899750, 60.425964, 33.371490
1648228039.312076, 0.401328, 6.784270, 0.052074, -1.733922, 1.685620, -0.375075, 69.422394, 61.888947, 38.269989
1648228039.345439, 2.671181, 10.643573, -0.713322, -1.684293, 1.872667, -0.362398, 68.803772, 62.673721, 41.929642
1648228039.378733, 2.821118, 10.187478, -0.891092, -0.929633, 1.651596, -0.086897, 68.391449, 63.333908, 44.774857
1648228039.412079, -0.187795, 7.291990, 1.382352, -1.208773, 0.668191, -0.377506, 67.773056, 63.863251, 46.808533
1648228039.445394, -1.638382, 7.055413, -0.381875, -1.368402, 0.494142, -0.648813, 66.189423, 64.483414, 50.212509
1648228039.478779, -0.164601, 11.574469, -1.139041, -0.922441, 1.147136, -0.711391, 64.633286, 65.039017, 52.387939
1648228039.512059, 2.442834, 12.048221, 0.439486, -0.415416, 1.124550, -0.594634, 63.060181, 65.476456, 53.640747
1648228039.545466, 3.624821, 13.121572, -1.705420, 0.067865, 0.530935, -0.207792, 61.734131, 66.458817, 53.979904
1648228039.578737, 2.218228, 12.666823, -2.209100, 0.939111, 0.603528, 0.319656, 61.875580, 67.168945, 52.852219
1648228039.612080, 2.999486, 12.419622, -1.072902, 1.865875, 0.126832, 0.710424, 62.757965, 67.724274, 49.711426
1648228039.645473, 0.845153, 12.646772, -0.076914, 2.666176, -0.505726, 0.901479, 65.091293, 67.623047, 43.746262
1648228039.677854, -4.080019, 16.112678, 2.553715, 2.936086, -0.283665, 0.926608, 66.959656, 66.802887, 37.772308
1648228039.712064, -3.699939, 17.009606, 2.743456, 2.588669, -0.057518, 1.220937, 69.328735, 64.851776, 32.853241
1648228039.745404, -3.876212, 14.645332, 0.774524, 2.600569, 1.187425, 1.181682, 71.982361, 62.328415, 28.789658
1648228039.778737, -3.507505, 8.775348, -0.970849, 2.158586, 1.476678, 0.941323, 75.678528, 58.515167, 24.485764
1648228039.812071, -0.950797, 7.751078, 3.570204, 0.868282, -0.136404, 0.971181, 77.432922, 56.178207, 22.758636
1648228039.845454, 1.067664, 6.274604, 0.670376, 1.057340, 0.271159, 1.258859, 79.064850, 53.880692, 21.970520
1648228039.878731, 0.338031, 5.020042, 1.347487, 1.652224, -1.009582, 1.088749, 80.791122, 50.441162, 19.026550
1648228039.912083, -0.371251, 3.361010, 2.169446, 1.275929, -1.761838, 0.839979, 80.342346, 47.903992, 16.003479
1648228039.945402, -1.623119, 2.695273, 2.753631, 0.171508, -1.955603, 0.582640, 79.689850, 46.457413, 14.597061
1648228039.977737, -1.163432, 2.426673, 2.564938, -0.944910, -1.949516, 0.488059, 78.969833, 45.914139, 13.933380
1648228040.012105, -0.264410, 4.875193, -0.378284, -2.050664, -1.384586, 0.319698, 78.435837, 46.947968, 15.226990
1648228040.045466, 0.715118, 13.644406, -22.046856, 0.668266, 0.022376, 0.739590, 78.995483, 46.899353, 16.437241
1648228040.078804, 7.560141, 27.211149, -16.380380, 0.463675, -2.482521, 0.802806, 78.292435, 45.031219, 14.425415
1648228040.112147, -2.745850, 6.244377, -4.731541, 0.018884, -0.313886, 0.369408, 78.096832, 43.231354, 14.854950
1648228040.145407, -0.866102, 6.314408, -8.048558, -0.038444, 0.402107, 0.077452, 77.924149, 42.726196, 15.742599
1648228040.178780, -2.561347, 10.803685, 9.577256, -0.946522, -0.405698, -0.373418, 77.443024, 43.220612, 17.923080
1648228040.212066, -4.639664, 18.801666, -6.103867, 0.193620, 0.257009, -1.405108, 75.225174, 44.635757, 18.582260
1648228040.245405, -0.300323, 5.783793, 8.007557, -1.548677, 1.810023, -0.132482, 75.632477, 45.881592, 21.340057
1648228040.278786, -2.188899, 6.084115, 6.702418, -3.370367, 2.260669, -0.382384, 76.538681, 48.006683, 26.721359
1648228040.312088, 0.293290, 14.312986, 1.315464, -2.514822, 1.151034, -0.593814, 76.035248, 51.235550, 34.141174
1648228040.345441, 2.341230, 11.901726, 0.008230, -1.126203, -0.436194, 0.027514, 75.902374, 51.724777, 36.575943
1648228040.378775, 1.445499, 7.202656, 0.448464, -1.750581, -0.570977, -0.482631, 74.781418, 52.533493, 38.549881
1648228040.412064, 0.345513, 6.586299, -0.211887, -1.926507, 1.026836, -0.258625, 74.256836, 53.447021, 43.210739
1648228040.445412, -0.431854, 9.177574, 0.920122, -1.539662, 0.730599, -0.495163, 73.515793, 53.864151, 46.116455
1648228040.478796, 1.654244, 9.263765, -0.537798, -1.525362, 1.027090, -0.359976, 72.844162, 54.174011, 49.196136
1648228040.511267, 2.080861, 8.422502, -1.419313, -1.282117, 2.002092, -0.034575, 72.220642, 54.503006, 52.576263
1648228040.545468, -1.312023, 6.508637, 1.276558, -1.145264, 0.731937, -0.540701, 70.987259, 54.522003, 56.760483
1648228040.578760, -1.065420, 8.178144, -0.004489, -1.150892, 0.692953, -0.827410, 69.585602, 54.762253, 59.193802
1648228040.612080, 3.162740, 12.548310, -0.727987, -1.293428, 1.362055, -0.632475, 67.416107, 54.926422, 62.185654
1648228040.645403, 3.534739, 12.555194, 1.220744, -0.204255, 0.573885, -0.215523, 65.682678, 55.615860, 64.593338
1648228040.678260, 0.867748, 12.782343, -3.304597, 0.433974, 0.360913, -0.058056, 64.969009, 56.639267, 65.700287
1648228040.712066, 0.262464, 12.981062, -5.179855, 0.950202, 0.863895, 0.003090, 63.861008, 58.571228, 65.718903
1648228040.745422, 5.941211, 13.354707, -0.006135, 2.228059, 0.292695, 0.768123, 63.921844, 62.146637, 62.617569
1648228040.778747, 0.870292, 12.001834, -0.437840, 3.210855, -0.349914, 1.284478, 66.135910, 65.394180, 57.895096
1648228040.812137, -4.444087, 17.776199, 4.039766, 2.702376, -0.430596, 1.114641, 68.694672, 67.810013, 51.716309
1648228040.845450, -1.804929, 17.345093, 3.839851, 2.499990, -0.635897, 1.163830, 71.609772, 68.889694, 45.735199
1648228040.878747, -1.409886, 15.224728, -2.287809, 2.674023, 1.153025, 0.967956, 75.377762, 68.378845, 37.316483
1648228040.912114, -0.992247, 9.228001, 0.576703, 2.156249, 0.896429, 1.021321, 78.408585, 66.764099, 31.816422
1648228040.944794, -2.130391, 7.724892, 5.015553, 1.227472, -1.260998, 0.931713, 80.334610, 64.923660, 27.539749
1648228040.978761, -1.818695, 4.631134, 2.773084, 1.209616, -1.015677, 0.707852, 81.829788, 62.484146, 22.642242
1648228041.012087, -0.763002, 3.164237, 1.876904, 1.507401, -1.892330, 0.776433, 82.271759, 60.190903, 18.013916
1648228041.045411, -0.941669, 2.065597, 2.102259, 1.042467, -1.684896, 0.649360, 82.311905, 58.148239, 13.565918
1648228041.078743, -2.359785, 1.401356, 2.986018, -0.457509, -1.163233, -0.004622, 81.811676, 57.469681, 10.779144
1648228041.112092, -1.516876, 3.153313, 0.127791, -1.361192, -1.354337, -0.258298, 81.277237, 59.222244, 10.670410
1648228041.145414, -1.694047, 11.664550, -22.552482, 1.246173, -0.234931, -0.109956, 80.479691, 59.538635, 8.753372
1648228041.178743, 6.071695, 19.873071, -10.245986, 0.283944, 0.234840, 0.554330, 80.174240, 57.822098, 5.407822
1648228041.212089, -1.870470, 4.635474, -6.933309, -0.237599, 0.746519, 0.406769, 82.429138, 55.400085, 4.649429
1648228041.245461, -0.945261, 8.638878, -6.833052, -0.240187, 0.375520, 0.143516, 83.729065, 54.168365, 4.304153
1648228041.278883, 1.693149, 16.243312, 0.140659, -0.104959, -1.769066, -0.557304, 82.181122, 53.139526, 3.199402
1648228041.312076, -2.240524, 10.713155, 4.115333, -0.206426, 0.010367, -1.131346, 78.447266, 53.387360, 2.614349
1648228041.345465, -2.401833, 2.500444, 1.988534, -1.673025, -0.087336, -0.554804, 77.085114, 54.334045, 3.512100
1648228041.378800, 1.756147, 10.507253, 9.215581, -2.984336, 0.608934, -0.651682, 77.091064, 57.380829, 7.489624
1648228041.412074, 2.904915, 16.592416, -5.781249, -1.652223, 1.588403, 0.101115, 78.409943, 59.582718, 13.359299
1648228041.445422, -0.555604, 10.245238, 0.498144, -1.621684, -0.244366, -0.071391, 78.753250, 60.151062, 15.892242
1648228041.478746, -0.976834, 7.896975, 1.189769, -1.973789, -1.291565, 0.007533, 77.533066, 61.180237, 17.845200
1648228041.512112, -1.563264, 5.902306, -1.288080, -1.968461, 0.607281, -0.269875, 76.871735, 62.213623, 21.422440
1648228041.545413, -0.416292, 7.816919, -0.560991, -1.913050, 0.787858, -0.508405, 77.013641, 63.011230, 25.014084
1648228041.578754, 1.256956, 8.868273, -0.407613, -1.603747, 0.747992, -0.380365, 76.552216, 63.934113, 28.124908
1648228041.612107, 1.770961, 9.038111, -0.566977, -1.314094, 1.176026, -0.199357, 76.718460, 63.803757, 30.899902
1648228041.645407, 0.088885, 7.368156, 1.053149, -1.348171, 0.754496, -0.266843, 77.038376, 63.692856, 33.590652
1648228041.678772, -2.295142, 7.852084, 2.047791, -1.310384, -0.062476, -0.688911, 76.266586, 63.583527, 35.860443
1648228041.712072, -0.099210, 12.092813, -1.759888, -0.906360, 0.941721, -0.585744, 75.318924, 63.476730, 37.608582
1648228041.745417, 3.150470, 12.431443, -1.535282, -0.310895, 0.962093, -0.374379, 74.502258, 62.301529, 38.927872
1648228041.778769, 3.570952, 12.697649, 1.379060, -0.063968, 0.630546, -0.265257, 73.959290, 60.869766, 39.008133
1648228041.812153, 3.092710, 13.703064, -4.472967, 0.534366, 0.188856, -0.030287, 73.506531, 58.880325, 38.511276
1648228041.845436, 4.621408, 12.854169, -1.046416, 2.374443, 0.254070, 0.995450, 73.672028, 54.478226, 35.420151
1648228041.878778, -0.396390, 12.033258, 0.943166, 2.965691, -1.372225, 1.157030, 73.342163, 50.536743, 31.752899
1648228041.912084, -3.245939, 16.061502, 2.424578, 2.782642, -1.142553, 0.612719, 71.875595, 47.502411, 29.380203
1648228041.945412, -0.990302, 15.631892, 1.848623, 2.507751, -0.196680, 0.969139, 71.264130, 45.385468, 27.747910
1648228041.978795, -1.851316, 13.900735, 0.317232, 2.634233, 0.338140, 0.955265, 70.884369, 42.914932, 26.229477
1648228042.012088, -3.028515, 9.866505, 0.238223, 2.412141, 1.137676, 0.574655, 70.942169, 42.018509, 25.425674
1648228042.045412, -0.904559, 7.044340, 2.598008, 1.094474, -0.416359, 0.984767, 71.079620, 41.602310, 24.682663
1648228042.078744, -0.013767, 6.576872, 1.716044, 1.268879, -0.582497, 0.934996, 70.917877, 41.216736, 23.847763
1648228042.112108, 0.200963, 5.831826, 1.973421, 1.700959, -1.535862, 0.999801, 70.580383, 40.382828, 21.771194
1648228042.145431, -1.319355, 3.962853, 2.317587, 1.117620, -1.928275, 0.626012, 69.836746, 39.610458, 20.028290
1648228042.178753, -1.738939, 3.092860, 2.818574, -0.189287, -1.903706, 0.499328, 68.188156, 39.690979, 19.106216
1648228042.212109, -2.109441, 2.883367, 1.886481, -1.303228, -1.662037, 0.416796, 67.296295, 41.041245, 19.904099
1648228042.245418, -1.795352, 4.857237, -1.027711, -1.982784, -1.554962, 0.249460, 66.463684, 42.930725, 22.119583
1648228042.278757, 2.817227, 20.455760, -27.792342, 1.478173, -1.509928, 0.406864, 66.276932, 43.441437, 21.785629
1648228042.312084, 3.469497, 22.828264, -10.129269, 0.930218, -0.533292, 0.434805, 65.161041, 43.243134, 20.137833
1648228042.345471, -2.603096, 2.636764, -5.664382, 0.429880, 1.470726, 0.509421, 66.756805, 43.533951, 19.773224
1648228042.378755, -2.611625, 8.626757, -4.859631, -0.716705, 0.001752, -0.487392, 67.375412, 44.713074, 20.257721
1648228042.412139, -0.484826, 16.685042, 8.511088, -1.653294, -0.759825, -1.177361, 65.100693, 47.099915, 21.677795
1648228042.445459, 4.471621, 15.062970, 1.171214, 0.213117, 1.006777, -0.549638, 64.900452, 48.150452, 22.378479
1648228042.478751, -3.177555, 6.563105, 6.539014, -1.864890, 0.564233, -0.580380, 63.966599, 48.963852, 22.886444
1648228042.512082, -1.893215, 11.177330, 6.699724, -3.425952, 1.192857, -0.649690, 63.375534, 52.173630, 28.312851
1648228042.545432, -1.023671, 13.289316, -1.725172, -2.458387, 0.037096, 0.031184, 63.362747, 53.512802, 32.356567
1648228042.578835, 0.073173, 9.986215, 0.949151, -1.440612, -0.733917, -0.185338, 62.959732, 54.448990, 34.371262
1648228042.612085, 0.730232, 6.432023, 0.499341, -2.147602, 0.673999, -0.032829, 62.654419, 55.581406, 38.326828
1648228042.645412, 0.132130, 6.107758, -0.807145, -2.036492, 1.863000, -0.045070, 62.806870, 56.173874, 41.772797
1648228042.678809, 0.136918, 8.004864, 0.146196, -1.955510, 1.687028, -0.282012, 62.657379, 56.529678, 45.487183
1648228042.712087, 1.710358, 9.743204, -0.787393, -1.067874, 1.513771, -0.343475, 61.865219, 56.681503, 48.174362
1648228042.744495, 1.507748, 9.109339, 0.600645, -1.007070, 1.077514, -0.332408, 60.696899, 57.230240, 51.126846
1648228042.778760, 0.298826, 8.470685, 1.474379, -1.518701, 0.442686, -0.529509, 59.871277, 57.128464, 53.497742
1648228042.812113, 0.109235, 11.593473, -2.725799, -1.069049, 0.657439, -0.593085, 58.737396, 57.249588, 55.688751
1648228042.845425, 2.373851, 11.253945, -2.464531, -0.557533, 1.185292, -0.414547, 56.974716, 57.119247, 58.079834
1648228042.878752, 2.399140, 12.581230, 0.879869, -0.265011, 0.727816, -0.218500, 56.057632, 57.712387, 59.189026
1648228042.912084, 3.399168, 13.193548, -3.790919, 0.280009, 0.763338, -0.062455, 55.202744, 57.847549, 59.805176
1648228042.945427, 4.721066, 13.939491, -2.839673, 1.752146, 0.265649, 0.393811, 55.291016, 59.463760, 58.599167
1648228042.978765, 3.579032, 11.123611, -0.344615, 2.354204, -0.713690, 0.889969, 56.750610, 61.166626, 55.838684
1648228043.012089, -0.393248, 14.452748, 2.797475, 2.983193, -1.781140, 0.927202, 58.884598, 63.079926, 51.481857
1648228043.045451, -1.669806, 17.128568, 3.800795, 2.527061, -1.033162, 1.228859, 61.352692, 64.203705, 46.950729
1648228043.078752, -2.735226, 17.066468, 1.307533, 2.607801, -0.757699, 1.188447, 65.057892, 64.628876, 40.350372
1648228043.112148, -3.028515, 11.334151, 1.682974, 2.320932, 0.810970, 0.778986, 67.611740, 64.036682, 36.024277
1648228043.145419, -1.626112, 8.462156, 2.684199, 1.378799, -0.160625, 1.116519, 69.828323, 63.276077, 32.358444
1648228043.178750, 0.130185, 8.348132, 1.204283, 1.312060, -0.686310, 1.376160, 73.057343, 61.143524, 28.639053
1648228043.212099, 1.057040, 7.423522, 2.820519, 1.662162, -1.632144, 1.273627, 74.651443, 59.449585, 24.729340
1648228043.245428, -0.931494, 4.095581, 2.976142, 2.035496, -2.812738, 0.578258, 74.279709, 57.328476, 19.725571
1648228043.278752, -2.138321, 2.257732, 2.609231, 0.701041, -2.420391, 0.326641, 72.416199, 55.501968, 15.016632
1648228043.312146, -3.290980, 1.371129, 2.089539, -0.833188, -1.118505, -0.013483, 72.012253, 55.959518, 15.044815
1648228043.345442, -2.712032, 2.148646, 0.892588, -2.014076, 0.015496, -0.293551, 71.910034, 57.677383, 17.104065
1648228043.378756, -1.649605, 7.105392, -10.720487, -0.746071, -0.271580, -0.036696, 72.674805, 59.923370, 19.334595
1648228043.412112, 2.408417, 28.240955, -19.382260, 1.158876, -2.446259, -0.033773, 71.719177, 58.935928, 16.699234
1648228043.445442, 0.974889, 7.824251, -3.845686, 0.236158, 1.333689, 1.214683, 72.916306, 57.330429, 15.170059
1648228043.478774, -1.486949, -0.691176, -7.764695, -0.124998, 1.047471, -0.112657, 75.090149, 56.450821, 15.178253
1648228043.512103, 3.711013, 11.730541, -0.967706, -1.601703, -0.897042, -0.417433, 74.265747, 57.316605, 16.618484
1648228043.545424, -2.878130, 20.609587, -2.347964, 0.657770, 0.664120, -1.395878, 72.111984, 58.059616, 17.535248
1648228043.578788, -3.577985, 6.410774, 2.000655, 0.334167, -1.561887, -0.466925, 69.877625, 57.489029, 15.385513
1648228043.612096, -4.709844, 3.967641, 7.637204, -2.784161, 2.317661, -0.424399, 69.545715, 59.799286, 19.817627
1648228043.645437, -2.263568, 12.071714, 7.877522, -4.080018, 1.888127, -0.584989, 70.445953, 62.466431, 27.515671
1648228043.678764, -0.096067, 14.605827, -3.818901, -0.921745, -0.564542, 0.033328, 70.193146, 63.593246, 30.901154
1648228043.712102, 0.002245, 9.146599, 1.250073, -1.362255, -0.596394, -0.366506, 69.255783, 64.280914, 32.947754
1648228043.745426, 0.076764, 6.429479, 0.042796, -2.386040, 1.097926, 0.073249, 69.428162, 64.951523, 37.091721
1648228043.778773, 0.538546, 8.465897, -0.250493, -1.761156, 1.936739, -0.315032, 69.437729, 65.719131, 41.472275
1648228043.812090, 2.790442, 9.105897, 0.653617, -1.629891, 1.997740, -0.197538, 69.016052, 65.826767, 45.336655
1648228043.845422, 2.794482, 8.617630, -0.521637, -1.337512, 1.763456, -0.203781, 68.682877, 65.815933, 49.754608
1648228043.878759, 1.105672, 7.873781, -0.064494, -1.172058, 0.849343, -0.366541, 67.917725, 65.385788, 52.574966
1648228043.912109, -2.633023, 8.325687, 0.051026, -1.316337, 0.467243, -0.626040, 66.882660, 65.534134, 54.872665
1648228043.945426, -0.326210, 10.201544, -0.910994, -1.460350, 1.050286, -0.747998, 64.965622, 65.235504, 58.759018
1648228043.978763, 3.553145, 11.794436, 0.097564, -0.414598, 0.727562, -0.312184, 63.509445, 65.199631, 60.385971
1648228044.012132, 3.801843, 12.719047, -1.109114, 0.043648, 0.700270, -0.187802, 62.847198, 65.239563, 60.989792
1648228044.045428, 1.911171, 13.691392, -3.747524, 0.728442, 1.101100, 0.065450, 62.193176, 65.284546, 60.494492
1648228044.078762, 3.289783, 14.874127, -0.715268, 1.777964, -0.230741, 0.787543, 63.018097, 66.237503, 57.858337
1648228044.112107, -0.068833, 13.172598, -0.303764, 3.272820, -0.347814, 1.110370, 64.911362, 66.704529, 52.685349
1648228044.145434, -4.368969, 15.548095, 1.610400, 3.421693, -0.082156, 1.071029, 67.234879, 66.748642, 44.187561
1648228044.178760, -3.861847, 17.381605, 2.841768, 2.560220, 0.278333, 1.151962, 69.264267, 65.556534, 39.348923
1648228044.211250, -3.529652, 13.431771, 0.716914, 2.654837, 0.625068, 0.996931, 71.174835, 64.000305, 34.455872
1648228044.245429, -1.514931, 9.732430, -0.291344, 2.249906, 1.048195, 0.595122, 72.493484, 62.053391, 30.324326
1648228044.278773, 1.829769, 7.882610, 0.279972, 1.515909, 0.177019, 1.042383, 74.374496, 59.469391, 26.755325
1648228044.312095, 0.251990, 5.294777, 1.795352, 1.760452, -1.655283, 1.212845, 75.843231, 57.206558, 23.381714
1648228044.345430, 0.216077, 3.692158, 2.238579, 1.971997, -2.315973, 0.718879, 75.208572, 54.992126, 19.425095
1648228044.378760, -0.244209, 2.825607, 2.714276, 1.341532, -2.471239, 0.528040, 73.018753, 51.802338, 14.322845
1648228044.412096, -2.460341, 3.517830, 3.394080, -0.180869, -2.197020, 0.424299, 71.197556, 51.052338, 12.907440
1648228044.445428, -2.258480, 4.534917, 2.654421, -1.712705, -1.484807, 0.571276, 70.214127, 51.426147, 13.328705
1648228044.478771, -2.583044, 5.060744, -0.632518, -2.988723, -0.191615, 0.490731, 70.717850, 53.816360, 17.698181
1648228044.512191, -1.426196, 21.195269, -30.794222, 1.709210, -0.717106, -0.392316, 70.580719, 53.635742, 18.169769
1648228044.545481, 5.876269, 22.294955, -12.830227, 0.927671, 0.247418, 0.490757, 69.411118, 52.175415, 16.171280
1648228044.578768, -2.761861, 0.818817, -6.431125, -0.594220, 1.397095, 0.600065, 70.661636, 51.177582, 16.746323
1648228044.611119, -1.154304, 1.813308, -7.026084, -0.886898, 1.242440, -0.507583, 71.263779, 51.910934, 19.143921
1648228044.645432, 6.557718, 19.758149, 7.766341, -0.964099, -2.099151, -1.058325, 68.301987, 53.336624, 21.071579
1648228044.678765, 5.948244, 19.279010, -0.027683, 1.145211, 0.315827, -0.665597, 66.604843, 53.179031, 20.581970
1648228044.712100, -0.914735, 1.156848, 5.643133, -0.957126, -1.660971, 0.825614, 65.470123, 53.047516, 21.156784
1648228044.745440, -8.086416, 7.312640, 5.921160, -3.139007, 2.366475, -0.607493, 65.785049, 54.961517, 25.730774
1648228044.778764, -4.949264, 15.389330, 0.471059, -1.962874, 0.601359, -1.121102, 64.858994, 56.673370, 30.385925
1648228044.812099, -0.956484, 12.361862, 0.878822, -1.458232, -1.945374, 0.093523, 63.611404, 57.506195, 32.694824
1648228044.845434, 0.547973, 6.646154, -0.115670, -2.272151, 0.035344, -0.281802, 62.686127, 58.566330, 36.386032
1648228044.878777, 1.910573, 7.062895, -0.633865, -1.815064, 0.909120, -0.176071, 62.465103, 58.911438, 39.652512
1648228044.912243, 2.142661, 9.865757, 0.646584, -1.812405, 1.126894, -0.166670, 62.063080, 59.217041, 42.862244
1648228044.945434, 0.401927, 8.419509, -1.108366, -1.358799, 1.877288, -0.059129, 61.589478, 59.287155, 46.923691
1648228044.978763, -0.607080, 8.258050, 1.411232, -1.143082, 0.965449, -0.390956, 60.961685, 59.452866, 49.178314
1648228045.012157, -0.624737, 7.615357, 1.773505, -1.231505, 0.742255, -0.561305, 59.587860, 59.260330, 51.268295
1648228045.045437, -1.757194, 10.483162, 0.089932, -1.390418, 0.863974, -0.593371, 57.886368, 59.014938, 54.526978
1648228045.078771, 1.777844, 11.678616, -3.132813, -0.741523, 1.792071, -0.312692, 56.288712, 59.063293, 56.529282
1648228045.112142, 2.571223, 12.514642, -0.657208, -0.307884, 0.961608, -0.248213, 55.075623, 59.409073, 57.313812
1648228045.145433, 5.182698, 13.482947, -0.808941, 0.489833, 1.154860, 0.056178, 54.060562, 60.125717, 57.334488
1648228045.178765, 3.730166, 16.313043, -2.777124, 1.546693, 0.162031, 0.759773, 54.514160, 61.567551, 55.299454
1648228045.212115, 1.785027, 14.242657, 0.152630, 2.887030, -0.613999, 1.099098, 56.395920, 63.219101, 50.942261
1648228045.245437, -5.555146, 13.625701, -0.771980, 3.579479, -2.234885, 0.596386, 58.405472, 64.483490, 42.182587
1648228045.278771, -2.473360, 15.207670, 4.105757, 2.512871, -0.025860, 0.761827, 59.888519, 64.145279, 35.826508
1648228045.312144, -2.836082, 14.029722, -0.716315, 2.589428, 1.278063, 0.919572, 62.238892, 63.278748, 30.922684
1648228045.345437, -3.910629, 11.963227, -1.849820, 2.914614, 1.590472, 0.579632, 64.847931, 61.234131, 25.665451
1648228045.378772, -1.564760, 7.072172, 3.000384, 1.678187, 0.561499, 0.572248, 67.418259, 58.092667, 20.655258
1648228045.412104, -0.113425, 6.686556, 2.455553, 1.640832, 0.300193, 0.846988, 69.518219, 55.911102, 17.902786
1648228045.445483, 0.309002, 5.669769, 2.263418, 1.889402, -1.447029, 0.630736, 69.766602, 53.297363, 14.497330
1648228045.478775, -0.200365, 4.832247, 1.781885, 1.685272, -1.758625, 0.502177, 68.699066, 49.665588, 10.639465
1648228045.512169, -2.550573, 2.839523, 3.165434, 0.090575, -1.782191, 0.298269, 67.262177, 48.290283, 8.761185
1648228045.545498, -2.334646, 1.888127, 2.200271, -1.247543, -1.813121, 0.275058, 65.495163, 48.544754, 8.967087
1648228045.578772, -1.158644, 2.989759, -1.319055, -2.238065, -1.192609, 0.221672, 64.067230, 50.261429, 11.269211
1648228045.612126, 0.339827, 19.299510, -27.326969, 1.080373, -0.354621, 0.212695, 64.588120, 49.275894, 10.956894
1648228045.645492, 5.630264, 22.554427, -10.221745, 1.037601, 0.487740, 0.929770, 64.312943, 46.688965, 9.307236
1648228045.678325, -2.528726, 1.822736, -5.552752, -0.070556, 0.458339, 0.714594, 66.307312, 44.902618, 9.553040
1648228045.712110, -0.337283, 6.788160, -2.649334, -1.093337, -0.195782, -0.339949, 65.965775, 43.812347, 10.682587
1648228045.745503, -0.604686, 13.133692, 6.536619, -1.727348, -1.864404, -0.507379, 63.873962, 44.762268, 12.427032
1648228045.778800, -2.790891, 24.018930, -0.635810, 0.217254, 1.324973, -1.847647, 62.740280, 44.996658, 13.573364
1648228045.812129, -1.427692, 3.858256, 3.688567, -0.860330, -0.455491, 0.372352, 61.689499, 44.513931, 14.594772
1648228045.845453, -1.732355, 6.431275, 6.871209, -3.073471, 0.672628, 0.323922, 62.459641, 46.171036, 17.970825
1648228045.878840, -2.077269, 13.842077, 3.081637, -3.114907, 0.803630, -0.039715, 62.988464, 48.330322, 22.334442
1648228045.912110, -1.045219, 11.437401, -1.426944, -0.943962, 0.156125, -0.287818, 62.953812, 49.174957, 25.227188
1648228045.944801, 0.889296, 8.103774, 2.113033, -2.200928, 0.071112, 0.029463, 62.770935, 50.081070, 27.494568
1648228045.978788, -0.384269, 5.918167, -1.385195, -2.178361, 1.691564, -0.220842, 63.283798, 50.659348, 31.155670
1648228046.012116, 1.312771, 7.130232, 0.313940, -1.850870, 1.225332, -0.320799, 63.421692, 51.200363, 34.288712
1648228046.045453, 1.960552, 9.509470, -0.336685, -1.609731, 1.509272, -0.068171, 63.535431, 51.268311, 38.085220
1648228046.078777, 0.622044, 8.829217, -0.499790, -1.226872, 1.380360, -0.123117, 63.593948, 50.939209, 40.872635
1648228046.112159, -1.311723, 7.248894, -0.270246, -1.167271, 0.911580, -0.406185, 63.149002, 50.625961, 43.008652
1648228046.145441, -1.021277, 12.517485, 0.008829, -1.395597, 0.374897, -0.733286, 61.860550, 50.127182, 45.870148
1648228046.178831, 2.301277, 10.746823, -4.070592, -0.606048, 1.071787, -0.430931, 61.049057, 49.588669, 47.195953
1648228046.212146, 2.864513, 12.100445, 0.041150, -0.144240, 1.069617, -0.161906, 60.379974, 48.977219, 48.208069
1648228046.245445, 2.119766, 13.297995, -2.513762, 0.082249, 0.576725, -0.260437, 59.114639, 48.134979, 49.640549
1648228046.278797, 4.203320, 15.070153, -3.330484, 1.122627, 0.397131, 0.151784, 58.387756, 47.536972, 49.528458
1648228046.312111, 4.902278, 13.033286, -0.325163, 2.147126, -0.475398, 0.929320, 58.533234, 47.459656, 48.458801
1648228046.345461, -1.110311, 13.456610, 1.342100, 3.121329, -1.468380, 0.996476, 59.292816, 47.422302, 45.029099
1648228046.378821, -3.020136, 14.995484, 4.365677, 2.782959, -1.602761, 0.828859, 59.319717, 47.848450, 42.143631
1648228046.412153, -1.496675, 16.343569, 1.820790, 2.566871, -0.480483, 0.952688, 59.624344, 48.743790, 39.966278
1648228046.445488, -1.571494, 14.110976, -0.870442, 2.781114, 0.976350, 0.896372, 60.592377, 49.488373, 36.916122
1648228046.478784, -1.396268, 8.902540, 2.828899, 1.632362, 0.232333, 0.808509, 61.916473, 50.265396, 33.581741
1648228046.512117, -0.613963, 7.355436, 1.175852, 1.784184, -0.104412, 1.032684, 63.337845, 50.394257, 31.013733
1648228046.545448, 0.303465, 6.591985, 3.056049, 1.914795, -1.492451, 0.935315, 64.202744, 50.381927, 28.553177
1648228046.578779, 0.012420, 4.242226, 2.615965, 2.088450, -2.512518, 0.628266, 63.345276, 49.535843, 23.042831
1648228046.612121, -1.587206, 2.568978, 2.501043, 0.950005, -2.230661, 0.450620, 62.252319, 49.017456, 20.702606
1648228046.645454, -3.048717, 2.721010, 2.502689, -0.347720, -2.058469, 0.190257, 60.781967, 49.707886, 19.850601
1648228046.678779, -1.553388, 3.576039, 1.045368, -1.888218, -1.226136, 0.286857, 59.362854, 51.757156, 22.136276
1648228046.712175, -1.403451, 6.770653, -5.152921, -2.023010, -0.819746, 0.518932, 59.117615, 53.729294, 24.704346
1648228046.745446, -0.395343, 22.836045, -22.921937, 1.199829, -1.647681, 0.201663, 59.139053, 54.314240, 23.861786
1648228046.778803, -0.401029, 11.090092, -6.499958, 0.540642, 0.636025, 0.802792, 58.661804, 54.222473, 21.251999
1648228046.812118, -3.410391, 0.413598, -5.369147, -0.146875, 1.666849, 0.200710, 61.487076, 55.008926, 20.025925
1648228046.845451, -2.590526, 7.962815, -6.501155, -1.036014, -0.111516, -0.518756, 61.610535, 56.362015, 19.942871
1648228046.878820, 2.442086, 15.900791, 9.271097, -0.228121, 1.135159, -1.204835, 59.329987, 58.495270, 21.103592
1648228046.912120, -0.536750, 11.493964, 2.806603, 0.412444, -0.014467, -0.938485, 58.182785, 58.746094, 19.346558
1648228046.945471, -2.807650, 3.584270, 3.832069, -1.684151, 0.396516, -0.102877, 57.415146, 59.891083, 19.600372
1648228046.978804, -1.181389, 10.091560, 8.092701, -3.604543, 1.319215, -0.108193, 58.372009, 62.219360, 24.545181
1648228047.012190, -0.397288, 14.977228, -5.604976, -1.559215, 0.893589, 0.118563, 59.538559, 64.581772, 30.105759
1648228047.045492, -0.700005, 10.570251, 0.931494, -1.209152, -0.829269, -0.350366, 59.137634, 65.265411, 31.470840
1648228047.078888, 0.518943, 7.177368, 1.159093, -2.376349, -0.458598, -0.041300, 58.575104, 66.451996, 34.470596
1648228047.112194, -0.011073, 6.852654, -1.681029, -1.755885, 1.563742, -0.246998, 58.789032, 67.304962, 38.981873
1648228047.145464, 1.423503, 9.527576, 0.165649, -1.702116, 1.508871, -0.258021, 58.547852, 68.065948, 42.265762
1648228047.178874, 1.114351, 9.001899, -0.956035, -1.135028, 1.646256, -0.128223, 58.660248, 68.425583, 44.233292
1648228047.212218, -0.097564, 7.802853, -0.465523, -0.964440, 1.230353, -0.300441, 58.460388, 68.889359, 45.410385
1648228047.245509, 0.888249, 6.848165, 2.014272, -1.527034, 0.846536, -0.422581, 57.833649, 69.590942, 48.103317
1648228047.278799, -0.201113, 8.688707, 0.403273, -1.149573, 0.236034, -0.679401, 56.806351, 69.962631, 50.254379
1648228047.312131, 0.976385, 11.442788, -2.345420, -0.997135, 1.072324, -0.540831, 55.740540, 70.292770, 51.589127
1648228047.345463, 2.302324, 12.973730, -0.082001, -0.431008, 0.577161, -0.395155, 54.631363, 70.808121, 52.415024
1648228047.378790, 3.170671, 13.647847, -0.873584, -0.214047, 0.582854, -0.265807, 54.490158, 71.315521, 51.794312
1648228047.412178, 4.563199, 15.488988, -3.311630, 0.848962, -0.024798, 0.171662, 55.274902, 71.687042, 50.079636
1648228047.445456, 2.663699, 14.330943, -0.926855, 2.358181, -0.661312, 0.989321, 58.451706, 71.839523, 43.175995
1648228047.478218, -1.817498, 13.612084, 1.173458, 3.086036, -1.062639, 0.987109, 61.276688, 70.504135, 35.464218
1648228047.512125, -5.645378, 14.272285, 2.441188, 3.059457, -0.382507, 0.617512, 63.424820, 68.216888, 28.407578
1648228047.545459, -2.243966, 14.447960, 2.059163, 2.579261, 0.488998, 0.905694, 65.929047, 65.128036, 22.645920
1648228047.578803, -2.331055, 13.435512, -0.253187, 2.845148, 1.601353, 0.796472, 70.011963, 59.928482, 16.823273
1648228047.612185, -2.239776, 9.761759, 2.429666, 2.123988, 0.671409, 0.755512, 72.804474, 55.815323, 13.572891
1648228047.645467, 0.677110, 7.861960, 1.577480, 1.454627, -0.096789, 1.186144, 74.704605, 52.463150, 11.344391
1648228047.678794, 1.111059, 7.029975, 2.643049, 1.827700, -1.485135, 1.208859, 75.790680, 47.420471, 8.449875
1648228047.712141, 0.218321, 4.924574, 2.268356, 2.183756, -2.555673, 0.851377, 74.280045, 43.282318, 4.681274
1648228047.745459, -1.375319, 2.638859, 2.283021, 0.745324, -2.071092, 0.623299, 72.031494, 40.109741, 1.794617
1648228047.778838, -2.952948, 2.674623, 2.395548, -0.450482, -1.870366, 0.439605, 69.268478, 38.468964, 0.635559
1648228047.812134, -1.670554, 2.473210, 1.843236, -1.536329, -1.431606, 0.321168, 67.631119, 39.211029, 1.061859
1648228047.845515, -1.177498, 4.201674, -1.179743, -2.394066, -1.044077, 0.295797, 66.638412, 40.658081, 2.480255
1648228047.878823, -1.617882, 21.788881, -23.408559, 1.053797, -1.288369, -0.431734, 66.055801, 39.791672, 2.396393
1648228047.912139, 2.463634, 22.748657, -10.639533, 0.812401, -0.246992, 0.517736, 64.306824, 36.064758, 1.627380
1648228047.945455, -2.478148, 3.911078, -5.831976, 0.331322, 1.749161, 0.531396, 66.737076, 34.211609, 2.527390
1648228047.978788, 1.692102, 2.612373, -5.463568, -1.159507, -0.390344, 0.143801, 67.369980, 33.074814, 3.858612
1648228048.012121, 5.342960, 14.536096, 11.412561, -2.785924, -1.846521, -0.176953, 64.469131, 35.895569, 6.789871
1648228048.045534, -9.387515, 26.606015, -11.119121, 2.239439, 1.241140, -3.301457, 64.692093, 34.025894, 7.462616
1648228048.078791, -0.707038, 2.530970, 5.456984, -1.820398, -1.253198, 0.158985, 61.379623, 34.317993, 7.701004
1648228048.112128, -2.536058, 6.520608, 6.468684, -3.572581, 2.183903, 0.601803, 63.096420, 37.867767, 12.090347
1648228048.145461, -2.533664, 13.909863, 2.807950, -3.548496, 1.996451, 0.013295, 65.249481, 40.854584, 16.931259
1648228048.178804, -0.090680, 11.534216, -0.631321, -0.507506, -0.193891, -0.237872, 65.656250, 41.646164, 18.614197
1648228048.212126, 1.243040, 7.182156, 2.437746, -1.748866, -1.591335, -0.116888, 64.357193, 42.593582, 20.293884
1648228048.245072, -0.148141, 6.419304, -0.629076, -2.083854, 0.486708, 0.114639, 64.237900, 43.846527, 23.142746
1648228048.278795, -0.291943, 8.753949, 0.178967, -1.583606, 1.458366, -0.217785, 65.060638, 44.346481, 25.502411
1648228048.312129, 1.319953, 8.254609, -0.226701, -1.356614, 1.292521, -0.124423, 65.611435, 44.907135, 27.824997
1648228048.345457, 1.314417, 8.215104, -0.062249, -1.007619, 1.536786, -0.178454, 66.273529, 44.964920, 30.481934
1648228048.378849, -0.761506, 9.275437, 0.750133, -0.905285, 0.755837, -0.366357, 66.069168, 44.981033, 32.510284
1648228048.412156, -0.885555, 8.423250, 1.903390, -1.577150, 0.363019, -0.565062, 65.200729, 45.086395, 34.378387
1648228048.445463, 0.716465, 9.857078, -1.235258, -1.236635, 0.833832, -0.604628, 64.466248, 45.212296, 37.249496
1648228048.478796, 1.119589, 11.415254, -1.706767, -0.557928, 0.870419, -0.518992, 63.713440, 44.793991, 38.726379
1648228048.512132, 2.882170, 12.545916, 0.213982, -0.330765, 0.784465, -0.219843, 63.203705, 43.984207, 39.696793
1648228048.545458, 0.915333, 13.214198, -2.646790, -0.098069, 0.783125, -0.175622, 62.533234, 43.221069, 41.522095
1648228048.578859, 3.142539, 15.045014, -1.817349, 0.826463, 0.352801, 0.351163, 62.217834, 42.831696, 41.682251
1648228048.612135, 3.574842, 13.446734, -0.037858, 2.441993, -0.737282, 1.196683, 62.264526, 41.996506, 40.821915
1648228048.645535, -2.485780, 14.706384, 1.804181, 2.794254, -1.529804, 1.077709, 62.861343, 41.500000, 39.685959
1648228048.678814, -6.225822, 14.242806, 1.286734, 3.193205, -0.910345, 0.659331, 63.280701, 41.394165, 36.628479
1648228048.712145, -4.246416, 13.513173, 2.922273, 2.373028, 0.873618, 0.828979, 64.287933, 41.701675, 34.866241
1648228048.745517, -3.314174, 11.631331, -0.152032, 2.490338, 1.948600, 0.867992, 65.967667, 41.869202, 33.267075
1648228048.778831, -1.739088, 8.525602, 0.651672, 2.181163, 0.673640, 0.976575, 68.522369, 41.826736, 31.111862
1648228048.812135, -0.835726, 7.885902, 1.111658, 1.787905, 0.069868, 0.849078, 70.283356, 41.771179, 29.027542
1648228048.845461, 0.159214, 6.306327, 2.681805, 2.548105, -1.827085, 0.745715, 71.054626, 41.067307, 26.566147
1648228048.878887, 0.367660, 4.994005, 1.905635, 2.661984, -2.215563, 0.232124, 70.460007, 39.349869, 20.496460
1648228048.912142, -0.878373, 4.380192, 1.200842, 1.402178, -1.264228, 0.187123, 69.969849, 38.407578, 18.132248
1648228048.945448, -2.861071, 3.445855, 1.920898, -0.395270, -0.861076, -0.069492, 69.418671, 38.708237, 17.206131
1648228048.978785, -1.017236, 3.242198, 1.572242, -1.602545, -0.705125, 0.076142, 69.142441, 40.770447, 18.139755
1648228049.012114, 0.049081, 3.914071, -0.262614, -2.741493, -0.694500, 0.299052, 69.200867, 43.218903, 20.120972
1648228049.045453, 1.159392, 13.928119, -28.451944, 0.407389, 1.023701, 0.631011, 70.853363, 44.998489, 22.113327
1648228049.078785, 8.456769, 29.981540, -9.713575, 0.670094, -1.251225, 0.445889, 70.742477, 44.222336, 18.659836
1648228049.112124, -0.226851, 7.484274, -4.836886, 0.621008, 0.594871, 1.140945, 73.214325, 42.536636, 16.211456
1648228049.145455, -6.518813, 6.174945, -3.027468, -0.413687, -1.008196, -0.764969, 73.886505, 41.904800, 14.654831
1648228049.178784, -1.890671, 15.240291, 8.867075, -1.736623, -0.345548, -0.979685, 72.244064, 43.414474, 13.709091
1648228049.212121, -1.463007, 16.835128, 2.363526, 0.229729, 0.792938, -1.447778, 71.976974, 43.676636, 13.566208
1648228049.245448, 0.568324, 3.175609, 5.816563, -2.428884, 0.669433, 0.289190, 72.682770, 44.542984, 14.333740
1648228049.277948, -0.747440, 9.854384, 6.699425, -3.422817, 0.865916, -0.169181, 73.604355, 46.746628, 17.677673
1648228049.312120, 1.035941, 15.075390, -3.391536, -1.509871, 0.887351, -0.044963, 74.811386, 48.634888, 21.436661
1648228049.345451, -0.584484, 10.001029, -0.094571, -0.902885, -0.211336, -0.388678, 74.652069, 49.045120, 21.412766
1648228049.378785, -1.013795, 7.163152, 1.013346, -2.030311, -0.569405, 0.027106, 73.981583, 49.684708, 22.564133
1648228049.412140, -1.797297, 6.976105, -1.188871, -1.696633, 1.450245, -0.131241, 74.451523, 50.492676, 25.016953
1648228049.445463, 0.044143, 9.075670, 0.516699, -1.820905, 1.162949, -0.414971, 74.997498, 51.679428, 28.499771
1648228049.478815, 2.848501, 9.947758, -1.312023, -1.400774, 1.429817, -0.137992, 75.563446, 52.096268, 30.870712
1648228049.512138, 1.856105, 8.858247, -0.012570, -1.031270, 1.344890, -0.131948, 76.072922, 52.096069, 32.827682
1648228049.545565, -0.487519, 7.326107, 1.853561, -1.158439, 0.412125, -0.406117, 76.472870, 51.607208, 33.827637
1648228049.578816, -1.271471, 10.110863, -0.378733, -1.425541, 0.108193, -0.739187, 75.712509, 52.107437, 34.559265
1648228049.612137, 0.426168, 10.169222, -2.221969, -0.957896, 0.947662, -0.534013, 75.206818, 52.123459, 35.643951
1648228049.645467, 0.402076, 11.674576, -1.417068, -0.256572, 0.846438, -0.410350, 75.158905, 50.847519, 35.770233
1648228049.678880, 2.282871, 12.932280, -0.209642, -0.022042, 1.160532, -0.156429, 75.141068, 49.708694, 35.255219
1648228049.712158, 1.870021, 15.000272, -2.928408, 0.588678, 0.655414, -0.000801, 75.216797, 47.792084, 34.071899
1648228049.745513, 4.293701, 14.896423, -0.817470, 1.577309, 0.418281, 0.633272, 75.422302, 44.894211, 32.890106
1648228049.778814, 4.691438, 12.481273, -0.006434, 3.029404, -0.018753, 1.341207, 75.541534, 39.117004, 29.263474
1648228049.812186, -5.165490, 14.446613, 1.009306, 3.410422, -2.552918, 0.789092, 73.744934, 34.880219, 25.601669
1648228049.845476, -4.339042, 15.945982, 2.406173, 2.764956, -0.678070, 0.696264, 71.843964, 31.633209, 23.617920
1648228049.878833, -2.784457, 13.214796, 2.016965, 2.248618, 1.789248, 0.685515, 72.036606, 28.902954, 24.316513
1648228049.912138, -1.182736, 9.800365, 1.145326, 1.962800, 1.646261, 1.071400, 73.083511, 27.480881, 25.064804
1648228049.945536, -0.307805, 7.920169, -0.457891, 2.001699, -0.048803, 1.109165, 73.237823, 26.267105, 25.278824
1648228049.978801, 1.238700, 7.791780, 2.271200, 1.771045, -0.975455, 1.268263, 72.691010, 24.898422, 23.938736
1648228050.012155, 0.469563, 6.134693, 2.599205, 2.216549, -2.986475, 0.676866, 70.642792, 23.622162, 21.846817
1648228050.045469, -0.295834, 4.332158, 2.215534, 1.640209, -2.466647, 0.543359, 68.090698, 22.743591, 19.939117
1648228050.077889, -3.043330, 3.369540, 1.660528, 0.226968, -1.515388, 0.445310, 66.226868, 22.232758, 19.255692
1648228050.112145, -2.412158, 3.140594, 1.649904, -1.433706, -0.584791, 0.242692, 64.921692, 23.372299, 19.744293
1648228050.145520, -0.898275, 3.508254, 0.298377, -2.410101, -0.584811, 0.322663, 63.923523, 25.234604, 20.812012
1648228050.178887, -0.927005, 7.045986, -5.099500, -2.325375, -0.403274, 0.365723, 63.140335, 26.948059, 22.570160
1648228050.212189, 1.493533, 24.402152, -23.902512, 1.317267, -1.668048, -0.078741, 61.551300, 27.006989, 22.604095
1648228050.245501, 1.528847, 10.689512, -4.913800, 0.501676, 0.666113, 0.683017, 60.890335, 27.231171, 21.811203
1648228050.278817, -2.288408, -0.477194, -6.906823, -0.123706, 1.288377, 0.321762, 61.677811, 27.903671, 22.007660
1648228050.312141, -0.749834, 6.505644, 3.315820, -1.804541, -1.682793, -0.400523, 60.571106, 29.895752, 23.383896
1648228050.345491, -1.098789, 23.927053, -7.098658, 0.146484, 3.449001, -1.617564, 59.322021, 31.464188, 24.890640
1648228050.378825, -0.314838, 13.562853, 4.979790, 0.683421, -1.069030, -0.575294, 58.969971, 31.742111, 23.994827
1648228050.412142, -0.885855, 1.219846, 7.005434, -1.301753, -0.386020, 0.717673, 58.506683, 32.899567, 24.856186
1648228050.445485, -4.573374, 8.823980, 4.447828, -3.171848, 0.658037, -0.281907, 58.633759, 35.059769, 27.435074
1648228050.478810, -1.831714, 15.166669, -2.396297, -1.256077, -0.244682, -0.529583, 57.916824, 36.358994, 29.406723
1648228050.512155, -0.795623, 10.742184, 0.603189, -1.100109, -0.347231, -0.156915, 57.279266, 37.074768, 30.377563
1648228050.545585, -0.253785, 6.962039, 0.313192, -2.301282, 0.690038, -0.102211, 57.073776, 38.714569, 33.351685
1648228050.578829, 1.165378, 7.667580, -0.290147, -1.644723, 1.260308, -0.203452, 57.005798, 39.360992, 34.950256
1648228050.612187, 2.460341, 9.834333, 0.571017, -1.826231, 1.322715, -0.128741, 56.787827, 40.113907, 36.832626
1648228050.645532, 1.607407, 8.517372, -0.723049, -1.432079, 1.831110, -0.052858, 57.059372, 40.711197, 39.554840
1648228050.678418, 0.791284, 8.030751, 0.694618, -1.109565, 0.910683, -0.377419, 56.730835, 41.146042, 40.733612
1648228050.712168, -0.274136, 7.828142, 0.484227, -1.295595, 0.392553, -0.653178, 55.802963, 41.376038, 42.324142
1648228050.745479, -0.249895, 10.576685, -0.801609, -1.459404, 0.082265, -0.596647, 54.635818, 41.861511, 44.821503
1648228050.778826, 2.425925, 10.985944, -3.291129, -0.392375, 0.761029, -0.301501, 53.501846, 42.254349, 46.115631
1648228050.812146, 1.272069, 11.913847, 2.022801, -0.345486, 0.895786, -0.116248, 52.657303, 42.560287, 46.668427
1648228050.845477, -0.932093, 12.934226, -2.037915, -0.114092, 0.444506, -0.211664, 51.935394, 42.687592, 47.250443
1648228050.878871, 4.279037, 15.705065, -0.722151, 1.243870, 0.777253, 0.586585, 51.381973, 43.695694, 47.286224
1648228050.912201, 5.413589, 14.463821, -1.733402, 2.660823, -0.302018, 1.350431, 51.757919, 44.602066, 45.381302
1648228050.944884, -0.766893, 15.061923, 2.432060, 2.988186, -0.888204, 1.156672, 53.051208, 45.531265, 42.253952
1648228050.978886, -5.139004, 15.575030, 2.146551, 3.095486, -0.576945, 0.658728, 54.101898, 46.064285, 37.587204
1648228051.011200, -2.660856, 13.907469, 2.347365, 2.361373, 0.901155, 0.950784, 55.224854, 46.273483, 34.075928
1648228051.045491, -2.365022, 12.077850, 0.578499, 2.427224, 1.666488, 1.055062, 57.291779, 45.778137, 31.084534
1648228051.078264, -0.654964, 9.524134, 0.254683, 2.189326, 1.226925, 1.025300, 60.408569, 44.715363, 27.549133
1648228051.112148, 0.283563, 8.361450, 2.949956, 1.883171, -1.007874, 1.132359, 62.324829, 43.584641, 24.913086
1648228051.145497, 0.795773, 6.916998, 2.859724, 2.893109, -3.053761, 0.835458, 61.872070, 41.808823, 21.369537
1648228051.178816, 0.810737, 4.460996, 1.753154, 2.264065, -2.761350, 0.336482, 59.691727, 39.134521, 16.737427
1648228051.212154, -2.581249, 3.377321, 1.351976, 0.600740, -1.792960, 0.333755, 58.110916, 38.657059, 15.663483
1648228051.245478, -2.738069, 3.384503, 1.777246, -0.610999, -0.826015, 0.144713, 57.406174, 38.906738, 14.906418
1648228051.278826, -1.131709, 2.991555, 1.592892, -1.800779, -0.497490, 0.170110, 56.821060, 40.186768, 16.298721
1648228051.312162, -0.602291, 4.968717, -2.557007, -2.811715, -0.344733, 0.264003, 56.858200, 43.259995, 19.015732
1648228051.345545, 1.864485, 16.707038, -23.918673, 0.143322, 0.144134, 0.235942, 57.038269, 44.315048, 20.031509
1648228051.378832, 6.869413, 26.329036, -14.901661, 0.782859, -1.403093, 0.382527, 55.942078, 43.533279, 18.535660
1648228051.412173, -1.859696, 3.519626, -5.542128, 0.155373, 1.145471, 0.389608, 57.219986, 42.716293, 17.671112
1648228051.445495, -2.501043, 7.270293, -4.252850, -0.537508, 0.099754, -0.253951, 57.852493, 42.601349, 18.044830
1648228051.478825, -0.243011, 13.310714, 7.220613, -1.513064, -1.416898, -0.735205, 55.805862, 43.605911, 19.222107
1648228051.512153, -3.729268, 13.454815, 2.445527, 1.035300, 0.555579, -1.340477, 55.486053, 43.021851, 19.048309
1648228051.545584, -3.629011, 4.267515, 3.245490, -1.479417, -0.247865, -0.453090, 54.090485, 43.280624, 19.370911
1648228051.578858, -0.469114, 9.382876, 8.537424, -3.719610, 1.869791, -0.094587, 54.612045, 45.647446, 22.932358
1648228051.612176, 0.683395, 14.887445, 1.809268, -3.069938, 1.533645, 0.391573, 56.018982, 47.854935, 27.122787
1648228051.645489, 1.193210, 10.217555, 0.291793, -0.602250, -0.183386, -0.350821, 56.487869, 48.605331, 28.957748
1648228051.678841, 0.907552, 7.960571, 1.915511, -1.749116, -1.228541, -0.185432, 55.431870, 49.246460, 30.135605
1648228051.712150, -1.454777, 6.616376, -0.933888, -1.837593, 1.192333, -0.065500, 55.568970, 49.903503, 32.564819
1648228051.745560, -0.674566, 9.059210, -0.324265, -1.721002, 1.467610, -0.408946, 55.492828, 50.736847, 35.991318
1648228051.778872, 2.027141, 9.230845, -0.828094, -1.429152, 1.593543, -0.340430, 55.337097, 50.991409, 38.329666
1648228051.812167, 2.675820, 9.232790, -0.692672, -0.937304, 1.943071, -0.281911, 55.317139, 51.281586, 39.948608
1648228051.845488, 0.474950, 8.185476, 1.831265, -1.258806, 0.604872, -0.510291, 54.756317, 51.553711, 41.845764
1648228051.878830, -1.292869, 9.621548, -1.070657, -1.461059, -0.152939, -0.722117, 53.601578, 51.689697, 43.962616
1648228051.912151, 1.752406, 9.864260, -3.122787, -0.977751, 0.819821, -0.554342, 52.582565, 51.669327, 45.273499
1648228051.945484, 1.668310, 12.077101, 0.151733, -0.149369, 0.703301, -0.195222, 51.811554, 51.814499, 46.339310
1648228051.978836, 2.242469, 12.492645, -0.931644, 0.186824, 0.637960, -0.067803, 51.543793, 51.785889, 46.592667
1648228052.012162, 0.299574, 14.968848, -3.428646, 0.460039, 1.106828, 0.097247, 51.242279, 51.888962, 46.296600
1648228052.045537, 3.062633, 15.338603, -3.585317, 1.733127, 0.409973, 0.480430, 51.471191, 52.242767, 45.081421
1648228052.078894, 5.149479, 12.209531, 0.812083, 3.255616, -1.554249, 0.963133, 53.021988, 52.770142, 39.955536
1648228052.112156, 0.597503, 15.170560, 4.413711, 2.989701, -2.535840, 0.901197, 53.761017, 52.522400, 36.210831
1648228052.145498, -2.210447, 16.335339, 4.501249, 2.290003, -0.774604, 1.156373, 55.373581, 52.463089, 32.669739
1648228052.178821, -6.080225, 12.980763, -0.830638, 2.666045, 0.046432, 0.124438, 57.191315, 51.688828, 28.043121
1648228052.212199, -1.928529, 8.886977, 1.830367, 1.705960, -0.363249, 0.647447, 57.984482, 50.924347, 25.109161
1648228052.245490, 1.006612, 6.745663, 0.415843, 1.349302, 0.565683, 1.300220, 60.351852, 50.136612, 23.029602
1648228052.278830, 1.538574, 7.910592, 2.426224, 1.663741, -1.892043, 1.085521, 62.303101, 48.843796, 19.806656
1648228052.312155, 0.310648, 6.105514, 2.992154, 2.348922, -2.454548, 0.615465, 61.471725, 47.138412, 16.188400
1648228052.345554, -1.211915, 4.038869, 2.385373, 1.521429, -2.358044, 0.543922, 60.290359, 45.345123, 13.646301
1648228052.378828, -3.897611, 2.998588, 2.006491, -0.654219, -1.677691, 0.299089, 59.005875, 45.248962, 12.445862
1648228052.412157, -3.387646, 2.913594, 0.831536, -1.423142, -0.998437, 0.190804, 57.824158, 46.944260, 13.545197
1648228052.445526, -1.867926, 4.973355, -2.426972, -1.943638, -0.692451, 0.236237, 57.456924, 49.163177, 15.522766
1648228052.478827, -0.347309, 16.048633, -20.005051, 0.520575, 0.333075, 0.010590, 58.268570, 49.727692, 15.558472
1648228052.512170, 3.063082, 23.000347, -12.695554, 0.675870, -1.310725, -0.041406, 57.135971, 48.933472, 13.800751
1648228052.545566, 0.945859, 7.605481, -4.831050, 0.583831, 0.407663, 0.867255, 58.035080, 48.442673, 12.673203
1648228052.578878, -2.272846, 1.175254, -5.754913, 0.128359, 1.862310, 0.237854, 60.377502, 47.889114, 12.141998
1648228052.612185, 1.174356, 16.519543, 4.881927, -1.653874, -0.945220, -0.397161, 58.688889, 49.902756, 13.284271
1648228052.645494, -0.082001, 18.643499, 2.189198, 0.405338, 0.900540, -0.955195, 58.675339, 49.492310, 13.176483
1648228052.678828, -3.159598, 1.967884, 3.658639, -1.040297, -1.161644, 0.303757, 57.884842, 49.946838, 13.122543
1648228052.712173, -4.442591, 7.226898, 6.050896, -3.765949, 2.272942, -0.682849, 58.460358, 52.463120, 16.433395
1648228052.745525, 2.093729, 16.808942, 0.870592, -2.502992, 0.785532, -0.117393, 58.955048, 55.979904, 22.767944
1648228052.777941, 2.121861, 13.082666, -0.385018, -0.450944, -1.200459, 0.037482, 58.521332, 56.382996, 23.304794
1648228052.812178, 0.837372, 6.558616, 1.165677, -1.918990, -0.310501, 0.112357, 57.559830, 57.125870, 25.262207
1648228052.845502, -2.431761, 7.724592, -0.556652, -1.781755, 1.315828, 0.204956, 58.558868, 58.388504, 28.876724
1648228052.878877, -1.618630, 9.119813, 0.208744, -1.727337, 1.773981, -0.199799, 58.875748, 59.298141, 31.580353
1648228052.912175, 0.664092, 8.561665, -0.128389, -1.291781, 1.496825, -0.355374, 59.040863, 59.698532, 34.017975
1648228052.945510, 2.078616, 9.049484, -0.538695, -0.938774, 1.854297, -0.341052, 58.751907, 60.405334, 36.318985
1648228052.978853, 2.158672, 8.409184, 1.220893, -1.166587, 1.541642, -0.278743, 58.591385, 60.528656, 37.880432
1648228053.012171, -0.298527, 8.252215, 2.228553, -1.495570, 0.048176, -0.543776, 57.760208, 60.916855, 39.696716
1648228053.045498, 0.972644, 10.315418, -2.481440, -1.411513, 1.199067, -0.439808, 56.239914, 61.313934, 43.015961
1648228053.078917, 0.809240, 12.033557, -3.418022, -0.561782, 1.064643, -0.340138, 55.589706, 61.301834, 43.860214
1648228053.112168, 1.926285, 13.251607, 0.915034, -0.154828, 0.826459, -0.202587, 55.012207, 61.082718, 43.824646
1648228053.145500, 2.357840, 14.203302, -3.957466, 0.503998, 0.871415, 0.133987, 54.371338, 60.857254, 42.885254
1648228053.178833, 4.497209, 13.741670, -1.524957, 1.721891, 0.660741, 0.883393, 55.083618, 60.480453, 39.535034
1648228053.212166, 2.772186, 12.723985, -1.079486, 2.695974, -0.798399, 1.165058, 55.974091, 59.215515, 34.652771
1648228053.245180, -2.076970, 14.451551, 2.005892, 2.936258, -0.931568, 0.756279, 55.990097, 57.397873, 30.116699
1648228053.278837, -1.934515, 15.453973, 5.396531, 2.298221, -0.063878, 0.966126, 56.824020, 55.116257, 25.090347
1648228053.312162, -3.742736, 15.445893, 0.401777, 2.530303, 0.271760, 0.961648, 57.781723, 53.324081, 21.742798
1648228053.345501, -2.547580, 9.941324, 0.649876, 1.916010, 0.281027, 0.786790, 58.794800, 51.178940, 19.204590
1648228053.378838, -0.721403, 8.372523, 0.666187, 1.601596, 0.405727, 1.068478, 60.609222, 49.277588, 16.952393
1648228053.412230, -0.718709, 7.948001, 2.206406, 1.597616, -0.458259, 0.926941, 61.516693, 47.948166, 14.933777
1648228053.445518, -0.747141, 4.931906, 1.638532, 2.279892, -1.840537, 0.381891, 60.812592, 46.055542, 12.694778
1648228053.478834, -0.468216, 3.358466, 1.089212, 1.736894, -1.675170, 0.192794, 58.735214, 44.083374, 9.929214
1648228053.512164, -2.061707, 3.167678, 1.474379, 0.528456, -1.192402, -0.048147, 56.504303, 43.127579, 8.542267
1648228053.545580, -2.238130, 3.201796, 2.169446, -0.543175, -0.547088, -0.276795, 55.126556, 43.639206, 8.910141
1648228053.578830, -0.514604, 4.163367, -0.095768, -1.720391, -0.800953, -0.192996, 53.564056, 45.097687, 10.198959
1648228053.612167, 0.507720, 8.146421, -12.348544, -0.850798, -0.080883, 0.255482, 52.425583, 47.461411, 12.392151
1648228053.645555, 4.603601, 29.530532, -23.512407, 1.833410, -2.607971, -0.340565, 50.678375, 46.204803, 11.054962
1648228053.678845, -0.274884, 2.955043, -3.795408, -0.266952, 0.740574, 0.756675, 51.455841, 45.898636, 9.759003
1648228053.711772, -4.460697, -0.879869, -10.127473, -0.509556, 0.873261, -0.317655, 53.541733, 47.569641, 10.824661
1648228053.745503, -1.628805, 13.802423, 10.123134, -1.678236, -1.176008, -0.598669, 51.851410, 49.432251, 12.507843
1648228053.778836, -3.255366, 23.462428, -3.339313, 0.631080, 1.070529, -1.169557, 51.512741, 50.116669, 12.510025
1648228053.812171, -2.147000, 3.080889, 5.714660, -1.514132, 0.189546, 0.178913, 52.026337, 50.981430, 13.278152
1648228053.845508, -4.313304, 4.834941, 6.778883, -3.297187, 1.972479, -0.715170, 53.089828, 53.844498, 17.382217
1648228053.878835, 1.497723, 15.764022, 0.291494, -2.234880, 0.002701, -0.220441, 52.611496, 56.582748, 22.188705
1648228053.912219, 2.196979, 12.302007, -2.721609, -0.663898, -0.617448, -0.179809, 52.674011, 57.482574, 23.820786
1648228053.945512, 3.001730, 7.949198, 1.903091, -1.892134, -0.446683, -0.002377, 52.109390, 58.738358, 26.854919
1648228053.978908, 0.016610, 6.970419, -1.293467, -2.028920, 0.545727, -0.055964, 52.675018, 59.718277, 29.903076
1648228054.012190, -0.234931, 7.908946, 0.248997, -1.869659, 0.754873, -0.296840, 52.580017, 60.827972, 32.866379
1648228054.045508, 0.683245, 8.393472, 0.126444, -1.760149, 0.953774, -0.329825, 52.564575, 62.047867, 36.715317
1648228054.078850, 0.823156, 8.807969, -0.430507, -1.316195, 1.009327, -0.352355, 52.633392, 62.304810, 38.881180
1648228054.112181, -0.628927, 8.789264, 0.837222, -0.986483, 0.691448, -0.422002, 52.253387, 62.840408, 40.671692
1648228054.145584, -1.949778, 9.696966, 1.343297, -1.349155, 0.078145, -0.679315, 51.239914, 63.346359, 43.347595
1648228054.177963, 0.443975, 10.785430, -3.556287, -0.998418, 0.851872, -0.540709, 50.583618, 63.506882, 45.023605
1648228054.211450, 0.725593, 11.374702, 0.221613, -0.055621, 1.463454, -0.382098, 50.392838, 63.188629, 45.358398
1648228054.244743, 2.305616, 13.381642, 0.104297, 0.005714, 0.713426, -0.299834, 50.064972, 63.401688, 45.588745
1648228054.278062, 4.611981, 14.416985, -3.145682, 0.619001, 0.529929, -0.085435, 50.411194, 63.431473, 44.911041
1648228054.311427, 6.413019, 15.125818, -0.755071, 2.014750, -0.410344, 0.765304, 52.061066, 63.444412, 42.350754
1648228054.344677, -0.538995, 12.380566, 1.017536, 2.418806, -1.321367, 1.063598, 54.689941, 63.021210, 38.809494
1648228054.378023, -6.654534, 13.548937, -0.443825, 3.299860, -1.440246, 0.452801, 56.988800, 61.806244, 32.996124
1648228054.412230, -1.706617, 15.719131, 3.669713, 2.287587, 0.074350, 1.100935, 59.236786, 60.733612, 29.267441
1648228054.445528, -1.646762, 12.797457, 2.536806, 2.265230, 0.657690, 1.198805, 62.288681, 59.358063, 26.315369
1648228054.478995, -3.112761, 11.495759, 0.967108, 2.254747, 1.343569, 0.926849, 66.639267, 57.515137, 22.709763
1648228054.511645, -0.084396, 8.241441, 1.600823, 1.321848, -0.065246, 1.470480, 69.587372, 56.188538, 20.852585
1648228054.545211, 1.119738, 7.312490, 2.130690, 1.552357, -1.715398, 1.352761, 71.716766, 54.667862, 18.533600
1648228054.578028, 0.221314, 5.422867, 1.868375, 2.046078, -2.601445, 0.836259, 72.034439, 52.609894, 14.552185
1648228054.612169, -1.734599, 3.167379, 1.916558, 1.441615, -2.343716, 0.346281, 70.674866, 50.254486, 10.050812
1648228054.644515, -3.453037, 1.830666, 2.161366, 0.095578, -1.872788, -0.100218, 68.897751, 49.678284, 8.186218
1648228054.678834, -2.370110, 2.048539, 2.095226, -0.863895, -1.252723, -0.110043, 67.946655, 50.394043, 7.623459
1648228054.712208, -1.738190, 4.914997, -0.163853, -2.199122, -0.604811, 0.113379, 67.745407, 53.494873, 10.138489
1648228054.745516, -0.246453, 17.649905, -24.249522, -0.316545, 0.302654, 0.986818, 69.974670, 55.091217, 12.702484
1648228054.778873, 4.398298, 27.961881, -21.422269, 1.439748, -1.818176, 0.918646, 70.662476, 54.261505, 10.263779
1648228054.812176, 2.826056, 4.600159, -4.654777, 0.117174, 1.556944, 0.870156, 74.781158, 52.704895, 9.110031
1648228054.845502, -0.199766, 7.482928, -5.466860, -0.403881, 0.095663, -0.606493, 76.256500, 52.985809, 8.912811
1648228054.878941, -1.572841, 12.827384, 12.450447, -1.198588, 0.226553, -1.139329, 75.757462, 54.423904, 10.057816
1648228054.911617, -6.680870, 20.138528, -7.453599, 0.554346, -1.444251, -1.832205, 73.179062, 55.365723, 8.668533
1648228054.945526, 0.462829, 4.216937, 7.423073, -1.646467, 1.695826, 0.480681, 74.472931, 56.612335, 10.374039
1648228054.978850, -2.462736, 8.861988, 6.293009, -3.797419, 1.350409, -0.196291, 77.296478, 59.779617, 16.734787
1648228055.012225, 0.866701, 15.228769, -3.500622, -1.094701, 0.210805, -0.297230, 77.683121, 61.794724, 20.611374
1648228055.045522, 1.030554, 10.211420, 1.032350, -0.877065, -0.164681, -0.254957, 77.609070, 62.536148, 22.052704
1648228055.078885, -0.015263, 7.739257, 0.017807, -2.098603, 0.391260, 0.089110, 77.918015, 63.743607, 24.741440
1648228055.112175, -0.397437, 7.391349, -0.235530, -1.626326, 1.573467, -0.035006, 79.015686, 64.712540, 28.361633
1648228055.145514, -0.125097, 8.353968, 0.943465, -1.753628, 1.857781, -0.184146, 80.296661, 65.676346, 33.675705
1648228055.178931, 1.063774, 9.074024, -0.341174, -1.209779, 1.937647, -0.276946, 81.171692, 66.120728, 37.545547
1648228055.212229, 0.875081, 8.480711, 0.359579, -0.885257, 1.624511, -0.453791, 81.408356, 66.429382, 40.463394
1648228055.244615, -0.267103, 8.202236, 0.616956, -1.150132, 0.624007, -0.690309, 81.236588, 66.998459, 42.552841
1648228055.278847, 1.475576, 10.283545, -0.992846, -1.353890, 0.910384, -0.627036, 80.619492, 67.531906, 45.839203
1648228055.312218, 3.641281, 10.247782, -2.388815, -0.602427, 1.211495, -0.415114, 80.714325, 67.619934, 48.220886
1648228055.345524, 3.076848, 11.720814, 1.727267, -0.442843, 0.613938, -0.240205, 80.900558, 67.274963, 49.155167
1648228055.378854, 0.636259, 13.265074, -1.874510, -0.243836, 0.810731, -0.201142, 81.848419, 66.372650, 50.140839
1648228055.412239, 3.087323, 14.897321, -1.634492, 0.770215, 0.344857, 0.135388, 82.626694, 65.371277, 49.288971
1648228055.445537, 5.461473, 14.733618, -1.946785, 1.943674, -0.303427, 0.873209, 84.640839, 63.174347, 46.544724
1648228055.478856, 1.802535, 12.962357, 0.394145, 2.862611, -1.182610, 0.957081, 87.422577, 59.058395, 39.335236
1648228055.512187, -7.004536, 14.404714, 0.720954, 3.526234, -1.354605, 0.499199, 87.917877, 55.418884, 32.559402
1648228055.545599, -5.549759, 15.326632, 2.739116, 2.877850, 0.559109, 0.548817, 88.087128, 52.164368, 28.210815
1648228055.578847, -3.853318, 12.965051, 1.609652, 2.719137, 1.927776, 0.754487, 89.754318, 48.045944, 26.838409
1648228055.612185, -2.192640, 10.232818, 1.671003, 2.123760, 0.444673, 0.541413, 90.266205, 45.638046, 25.561478
1648228055.645011, 2.484134, 8.023868, 1.121983, 1.679793, 0.381428, 1.128717, 90.805328, 43.133087, 24.407074
1648228055.678411, 3.104681, 7.922563, 2.036867, 1.786508, -1.111468, 1.410454, 91.313019, 40.170135, 23.135422
1648228055.711462, 1.478270, 5.936124, 2.641104, 2.206721, -2.982371, 0.742269, 89.529022, 35.680099, 17.835876
1648228055.745530, -1.029207, 2.818275, 2.456750, 1.243568, -2.238356, 0.504604, 87.089279, 33.134048, 14.401154
1648228055.778877, -3.151218, 2.885911, 2.628385, 0.087497, -1.448919, 0.335026, 85.591064, 32.076141, 13.039291
1648228055.812207, -2.403479, 2.234089, 2.126650, -1.637878, -0.817199, 0.396495, 85.001068, 31.964386, 13.052963
1648228055.845551, -0.786495, 3.944447, -1.669207, -2.781640, -0.526537, 0.501685, 85.185043, 33.136780, 14.532806
1648228055.878860, -1.033397, 12.479178, -25.504832, -0.094620, 0.071574, 0.269434, 86.180023, 33.298050, 16.230392
1648228055.911506, 5.094861, 29.841329, -20.225318, 1.532571, -1.491766, -0.135336, 84.450348, 31.900299, 14.446899
1648228055.944875, -2.628684, 3.521871, -4.313005, -0.022317, 0.646437, 0.550505, 85.061020, 30.556961, 15.300095
1648228055.978922, -2.302025, 1.662025, -8.231415, -0.466064, 0.391187, -0.342414, 85.546204, 30.552322, 16.378128
1648228056.012189, 2.602796, 12.458079, 7.318326, -2.427973, -1.078128, 0.025014, 84.678864, 32.774399, 18.200363
1648228056.045520, -4.307618, 22.462999, -11.249755, 1.054760, 0.205279, -1.912477, 84.386536, 33.438141, 19.492783
1648228056.078903, 0.722750, 5.265598, 6.828113, -0.818056, -0.075981, 0.171554, 83.278290, 34.090942, 19.718964
1648228056.112202, -3.075202, 3.192967, 6.070648, -2.831409, 1.213228, 0.286851, 84.463684, 35.128418, 22.561859
1648228056.144861, -1.169717, 14.686332, 1.422156, -2.799820, 0.776864, -0.546322, 84.925323, 38.218689, 27.986557
1648228056.178877, 0.688782, 13.447483, -2.799121, -0.814786, -0.087317, -0.056505, 84.651779, 38.783768, 29.705048
1648228056.212203, -0.223110, 8.169315, 1.693898, -1.609040, -0.486530, -0.180332, 84.432404, 39.370392, 30.957031
1648228056.245517, -1.102081, 7.246800, -1.464354, -1.835694, 0.542952, -0.110815, 84.235718, 40.338028, 33.710373
1648228056.278884, 0.269647, 8.589198, 0.100108, -1.699320, 1.295148, -0.255052, 84.234741, 40.982285, 36.661423
1648228056.312216, 1.748366, 9.457246, -0.445322, -1.512004, 1.286147, -0.218133, 84.505142, 40.970810, 39.649887
1648228056.345519, 1.690905, 8.708310, -0.713472, -1.079075, 1.627701, -0.122778, 84.492722, 41.050446, 43.736450
1648228056.378849, 0.089184, 7.875876, 1.548151, -1.126964, 0.920282, -0.357423, 84.157806, 40.823685, 45.937546
1648228056.412225, -1.108964, 8.260894, 1.347936, -1.497933, 0.107610, -0.664237, 83.780762, 40.650482, 47.869507
1648228056.445528, 0.033369, 9.954043, -0.648829, -1.506373, 0.708290, -0.652746, 83.056976, 40.596451, 49.916748
1648228056.478872, 1.162086, 11.810896, -2.138172, -0.554199, 0.728560, -0.501809, 81.851227, 40.111755, 52.483597
1648228056.512212, 2.956540, 13.353510, 0.254234, -0.221383, 0.814360, -0.217158, 81.106216, 39.588470, 53.847931
1648228056.545602, 1.779790, 12.797307, -2.370709, 0.048388, 0.986428, 0.006198, 80.205444, 38.854965, 55.330307
1648228056.578863, 4.525041, 14.654459, -2.095226, 1.583640, 0.418579, 0.650054, 79.228653, 37.633972, 55.291077
1648228056.612202, 3.157204, 12.473192, -1.001973, 2.351610, -0.889680, 0.994253, 78.345795, 36.903091, 53.628769
1648228056.645609, -0.693870, 14.109928, 2.752135, 2.582108, -1.366950, 0.726677, 77.375107, 36.450790, 51.124512
1648228056.678864, -1.876456, 15.505598, 3.263746, 2.478008, -0.681397, 1.048397, 75.800720, 36.309006, 48.638626
1648228056.712190, -3.270031, 14.216769, 1.971625, 2.153405, -0.511659, 0.936959, 74.639343, 36.575668, 46.353607
1648228056.745599, -3.293524, 12.391640, 0.917129, 2.183831, 0.358290, 0.871779, 73.041031, 37.077042, 45.017914
1648228056.778902, -1.108216, 8.762628, 1.660229, 1.990940, -0.743951, 1.046506, 71.856247, 37.956009, 42.016113
1648228056.812219, -1.212364, 7.922563, 1.842488, 1.915157, -0.352461, 0.773879, 70.811539, 38.159561, 39.875809
1648228056.845540, -0.929399, 6.472126, 2.174683, 1.828336, -0.649603, 0.568880, 70.306824, 38.638184, 37.560699
1648228056.878866, -1.015291, 4.885817, 1.812560, 1.937212, -1.470798, 0.467896, 68.862045, 38.961349, 34.536697
1648228056.912205, -1.827225, 3.587412, 2.201917, 0.832767, -1.466405, 0.209618, 67.188583, 39.184494, 31.721344
1648228056.945585, -2.267159, 2.885462, 1.852813, -0.390050, -1.064413, -0.000928, 65.683563, 39.495163, 31.490219
1648228056.978854, -1.127070, 3.116502, 1.283891, -1.264313, -1.107098, 0.056086, 64.332260, 40.330246, 32.518951
1648228057.012192, 2.018312, 7.288249, -8.555380, -1.593511, -0.714207, 0.804495, 62.956131, 41.687027, 34.634918
1648228057.045559, 2.981529, 26.655994, -24.818294, 1.557939, -2.797040, -0.089638, 61.478333, 42.183548, 34.009491
1648228057.078859, 4.857985, 15.765668, -5.479879, 1.091942, 0.077999, 0.957864, 60.364685, 42.747589, 31.964539
1648228057.112189, -4.000112, -0.370054, -6.075586, 0.029125, -0.036133, 0.131042, 59.217270, 44.012848, 31.399521
1648228057.145542, -3.387945, 9.542839, 5.474342, -1.617368, -0.004658, -0.358914, 57.800812, 45.645325, 31.335876
1648228057.178860, -4.618265, 14.284555, 1.884087, -1.155278, -0.294915, -1.518429, 55.337082, 47.064529, 32.524582
1648228057.212191, 1.408090, 12.388796, 4.852598, -0.024379, 1.716076, -0.294365, 52.966064, 47.807739, 32.206482
1648228057.245567, -0.680552, 3.163489, 7.785046, -2.119388, 1.131778, 0.285398, 53.301956, 48.994919, 32.819061
1648228057.278863, -1.571943, 8.952967, 5.417929, -3.471691, 0.608206, -0.282123, 53.009003, 50.426865, 36.842850
1648228057.312197, 1.685668, 15.986084, -2.253393, -1.695997, 0.410144, -0.059248, 52.094070, 51.098404, 39.850754
1648228057.345551, 0.468815, 9.194931, 0.910694, -1.133466, -0.583075, -0.237724, 51.591400, 52.001480, 41.161255
1648228057.378916, -0.353294, 7.421127, 0.852785, -1.991635, 0.113561, -0.070569, 51.042480, 52.453827, 43.426239
1648228057.412230, -0.987309, 6.493973, -0.749984, -1.704032, 1.375302, -0.254919, 50.317001, 52.834076, 45.627151
1648228057.445546, 0.879869, 9.042451, 0.567575, -1.788300, 1.085649, -0.375239, 49.014908, 53.318497, 47.935684
1648228057.478906, 2.512266, 9.626486, -0.606332, -1.389240, 1.482960, -0.174393, 47.957321, 53.551788, 49.506653
1648228057.511284, 1.070059, 8.795998, -0.709133, -1.013856, 1.469773, -0.182296, 47.047058, 53.601013, 50.400818
1648228057.545011, -1.633743, 7.511957, 2.149095, -1.405562, 0.411829, -0.637521, 45.676956, 53.921875, 51.800079
1648228057.578865, -1.172261, 9.499444, -0.876128, -1.323966, 0.459203, -0.768813, 43.239380, 53.379135, 53.636597
1648228057.612264, 0.280870, 10.684574, -2.246509, -1.042801, 1.091070, -0.542308, 41.427490, 53.436081, 54.619156
1648228057.645524, 2.455254, 12.895769, 1.222090, -0.199637, 1.036213, -0.190840, 39.779037, 53.569824, 54.100906
1648228057.678882, 2.482637, 13.106608, -1.929128, 0.072168, 1.309046, -0.007127, 38.389648, 54.217163, 52.940628
1648228057.712219, 3.610157, 15.237747, -2.553266, 0.686919, 0.590942, 0.287287, 38.148438, 54.969391, 50.999344
1648228057.745563, 6.520608, 14.337078, -1.179144, 1.860660, -0.154880, 1.019978, 38.556320, 56.299561, 48.490509
1648228057.778869, 1.495478, 12.305299, 0.415544, 2.809353, -1.602690, 1.096605, 40.269669, 58.790741, 43.522842
1648228057.812202, -5.757905, 13.921086, 0.572962, 3.100021, -1.517294, 0.740953, 41.183624, 59.783997, 39.122543
1648228057.845533, -3.813065, 15.546748, 4.909161, 2.234364, 0.314526, 1.035859, 43.012054, 60.850281, 35.177032
1648228057.878860, -2.740912, 12.780548, 0.291793, 2.515488, 0.840066, 1.078601, 46.805008, 61.424927, 29.537430
1648228057.912304, -1.125873, 10.304195, -0.073173, 2.139122, 0.048431, 0.969905, 49.415527, 61.413971, 25.323059
1648228057.945541, 0.093673, 8.586505, -0.024092, 1.662449, 0.235625, 0.893537, 51.793900, 61.692749, 21.909241
1648228057.978872, -0.181211, 7.804349, 2.858228, 1.611042, -1.234076, 0.778165, 54.043655, 61.359085, 18.788773
1648228058.012216, -0.093075, 6.013935, 2.618808, 2.307501, -2.406995, 0.479041, 53.900894, 59.907959, 13.506348
1648228058.045571, -0.722450, 3.998616, 1.830218, 1.617267, -2.217650, 0.529049, 52.537674, 58.619156, 9.908905
1648228058.078875, -2.779967, 2.108693, 2.309806, -0.385060, -1.565526, 0.183190, 51.309036, 58.686951, 8.963852
1648228058.111740, -1.803432, 2.388366, 2.436699, -1.390911, -1.198573, 0.082925, 49.283890, 61.097321, 10.058517
1648228058.145543, -0.454449, 3.606865, 0.211288, -2.111855, -1.164748, 0.132903, 47.668961, 63.882217, 13.220078
1648228058.178915, -2.249652, 9.071780, -15.661521, 1.562308, -0.603701, -0.047705, 46.429382, 65.783646, 15.123093
1648228058.212205, 7.316980, 29.315204, -11.061062, 1.605088, -1.424394, 0.417122, 44.126953, 64.266495, 10.218704
1648228058.245546, -2.545934, 1.832462, -5.117007, 0.040428, 1.682598, 1.027646, 47.818970, 64.317368, 7.465851
1648228058.278866, -4.453365, -1.647809, -5.808932, -0.742996, 0.519765, -0.197673, 49.614090, 65.170502, 6.779678
1648228058.312203, 2.189348, 17.246781, 3.690662, -1.264029, -2.052788, -0.739148, 46.825424, 66.889725, 8.717209
1648228058.344704, 1.519720, 23.837270, 1.580772, 0.075701, 0.822782, -1.151834, 45.413559, 67.193375, 7.929535
1648228058.378873, -1.092803, 4.516213, 4.475511, -0.251567, -0.352140, -0.022070, 45.000824, 66.827881, 7.276077
1648228058.412204, -5.711069, 6.289717, 6.002712, -3.569757, 2.026410, -0.588835, 46.113419, 69.219437, 10.248657
1648228058.445561, -1.478868, 15.492430, 3.829825, -3.554546, 1.179633, -0.408771, 46.915207, 73.503128, 18.339874
1648228058.478871, -0.456395, 12.817508, -3.589656, -0.963214, -0.181411, 0.068012, 47.336411, 74.691422, 21.061203
1648228058.512204, 1.890821, 7.567473, 1.032649, -1.888664, -0.412899, -0.217632, 46.698669, 75.454163, 23.342087
1648228058.545577, 0.465822, 6.916400, -0.759261, -1.898857, 1.252424, 0.066348, 47.607285, 76.826767, 28.074722
1648228058.578180, 0.625934, 9.564686, 0.045041, -1.564763, 1.509341, -0.043353, 48.577896, 77.585419, 30.103226
1648228058.612227, 0.697611, 8.544606, -1.069759, -1.390874, 1.770215, 0.029889, 49.350235, 78.120087, 33.178146
1648228058.645556, -0.163704, 7.652317, -0.338780, -1.040598, 1.991243, -0.111524, 50.467651, 78.723846, 34.723877
1648228058.678883, -0.410905, 7.250840, 1.476474, -1.093713, 1.095935, -0.424908, 50.554886, 79.304367, 36.612732
1648228058.712233, -0.897676, 9.608829, 2.589778, -1.464156, 0.604835, -0.731957, 49.446609, 79.850525, 38.974976
1648228058.745616, 1.663671, 10.349984, -3.146580, -1.261974, 0.885183, -0.672177, 48.368500, 79.909836, 41.167343
1648228058.778884, 3.158551, 12.608764, -2.279430, -0.531908, 0.862895, -0.403726, 47.675125, 80.000534, 42.603668
1648228058.812246, 2.422932, 12.877214, 0.525827, -0.097563, 0.874339, -0.153930, 48.053299, 79.873108, 41.818344
1648228058.845575, 2.073379, 16.156671, -4.221576, 0.868463, 0.578148, 0.092514, 48.983276, 79.547791, 40.753891
1648228058.878874, 3.321207, 13.661913, -0.755969, 1.931732, 0.197330, 0.589786, 51.632248, 78.531097, 35.099899
1648228058.912272, 2.410662, 12.808231, -1.518373, 3.068793, -1.255234, 0.717486, 53.602417, 76.571381, 29.028717
1648228058.945544, -2.668787, 13.064111, 1.769165, 2.796750, -0.815945, 0.811864, 55.781433, 73.859726, 22.449814
1648228058.978874, -1.253365, 14.465018, 5.151574, 2.068156, -0.715843, 1.061579, 58.899002, 69.587280, 16.460495
1648228059.012276, 0.420631, 13.359645, 1.299902, 2.423747, -0.451115, 1.465706, 61.451309, 66.533554, 12.532928
1648228059.045137, -3.227085, 12.094459, 0.594809, 2.136935, 0.045237, 0.849734, 64.246384, 62.589966, 9.060303
1648228059.078880, -1.616834, 8.998906, 2.338686, 1.334725, -1.353838, 1.112616, 65.038498, 59.713486, 6.922089
1648228059.112229, -1.142333, 7.634810, 2.524237, 1.406671, -0.526330, 1.195500, 66.577164, 56.103668, 4.876251
1648228059.145549, -0.381277, 4.911854, 2.669834, 1.637274, -1.264498, 1.011811, 66.765045, 53.418777, 2.571045
1648228059.178870, -0.746991, 3.051260, 1.799691, 1.085338, -1.717794, 0.583816, 65.855011, 50.693253, 0.592941
1648228059.212229, -2.284517, 1.854758, 2.314594, -0.118292, -1.841448, 0.044412, 63.077591, 49.729996, 0.244461
1648228059.245549, -2.766051, 2.008885, 2.051083, -0.992987, -1.538810, -0.318459, 60.371552, 50.507233, 1.127274
1648228059.278875, -1.583315, 4.986224, -4.360889, -1.144499, -1.475590, -0.126381, 57.885742, 52.200806, 2.951630
1648228059.312261, 1.971625, 22.045061, -22.557869, 1.211491, -0.985858, 0.047706, 56.457535, 50.786728, 2.595810
1648228059.345543, 5.141698, 22.227918, -10.351181, 0.649879, -0.531405, 0.845010, 55.899612, 49.124680, 2.323242
1648228059.378876, -2.336442, 0.145148, -4.546589, 0.114759, 0.118769, 0.574438, 59.331497, 49.056015, 3.349609
1648228059.412260, 1.206827, 7.554754, -0.155922, -1.343420, -1.172721, -0.102778, 58.310547, 49.484894, 4.526871
1648228059.445557, -0.630124, 13.612832, 7.364265, -1.813010, -0.449481, -1.248742, 55.749908, 52.875961, 8.597519
1648228059.478877, -4.406079, 18.048839, 5.796661, 0.395906, -1.304714, -1.613749, 52.062515, 52.438995, 8.310165
1648228059.512220, 1.248127, 2.239925, 8.180987, -2.303194, 0.646192, 0.584367, 51.227112, 53.576385, 9.836578
1648228059.545621, -0.518195, 7.395390, 6.709900, -4.038368, 0.271768, 0.662681, 53.309921, 58.473755, 17.197357
1648228059.578878, 0.285957, 15.178640, -2.944120, -0.592893, 0.757415, 0.033246, 54.096329, 60.210297, 20.564270
1648228059.612211, -1.496825, 9.518747, 0.924611, -1.073254, -0.128906, -0.084829, 54.157623, 60.868240, 21.668427
1648228059.645553, -2.203414, 8.009353, 1.445350, -2.646514, 0.975983, 0.127680, 54.838089, 62.899399, 26.847458
1648228059.678893, -1.622670, 5.631910, -1.246781, -1.688188, 1.595364, -0.335588, 55.218414, 64.101364, 30.697845
1648228059.712215, 3.541473, 10.335619, 1.871966, -1.634775, 1.088750, -0.184882, 54.966675, 64.813553, 33.631439
1648228059.745188, 2.995446, 9.282918, -1.953070, -1.171153, 2.032449, 0.108355, 55.285706, 65.482681, 36.295547
1648228059.778876, 0.258125, 8.379407, 0.054767, -0.958842, 1.534621, 0.021762, 55.987061, 65.997528, 39.146667
1648228059.812268, -2.123507, 8.409184, 0.055366, -1.709928, 0.622469, -0.588371, 55.391403, 66.548904, 42.098206
1648228059.845588, 0.051775, 10.280702, -2.406322, -1.325594, 0.576829, -0.705729, 54.003418, 66.791931, 45.790298
1648228059.878902, 2.668787, 11.232547, -0.715717, -0.626807, 0.893283, -0.400529, 52.501022, 67.213074, 47.954391
1648228059.912217, 3.423858, 13.240534, -0.035763, -0.062138, 0.773480, -0.124245, 51.701950, 67.619476, 49.006088
1648228059.945569, 0.174178, 12.487108, -2.376096, 0.003512, 0.894030, 0.053662, 51.606766, 68.113571, 49.516632
1648228059.978925, 1.859995, 14.565874, -3.655647, 1.243169, 0.913984, 0.359659, 51.713394, 69.023178, 47.893753
1648228060.012216, 5.402067, 13.099126, -1.581071, 2.956362, -0.302683, 1.224916, 53.503799, 69.475037, 43.645035
1648228060.045564, -0.416142, 13.539510, 0.932841, 3.311141, -2.401164, 0.808187, 55.025101, 69.852997, 37.703232
1648228060.078890, -3.467702, 15.944934, 3.982006, 2.812268, -0.944177, 0.920945, 56.481842, 68.949142, 29.966843
1648228060.112214, -4.466084, 16.544682, 1.544709, 2.738317, -0.224945, 0.834133, 58.047913, 67.494232, 24.802322
1648228060.145619, -2.473659, 11.598411, 0.792331, 2.292963, 0.773973, 0.568780, 59.191849, 65.482666, 20.139786
1648228060.178916, 0.361674, 8.660426, 2.064700, 1.698609, 0.462826, 0.849999, 60.736893, 63.971542, 16.663895
1648228060.212211, 0.670077, 8.056339, 1.018134, 2.108932, -0.408203, 0.882134, 62.681183, 61.294006, 12.434860
1648228060.245552, -0.102202, 6.052392, 2.623446, 2.435019, -2.278785, 0.611559, 61.612320, 58.911407, 8.280853
1648228060.278898, -0.736367, 3.324199, 2.529923, 1.910060, -1.960390, 0.439499, 59.617889, 56.291580, 4.970703
1648228060.312215, -2.415151, 2.139967, 2.088642, 0.767780, -1.378604, 0.131271, 57.277756, 54.778656, 2.453888
1648228060.345549, -2.746748, 2.796876, 2.029834, -0.935031, -0.940746, 0.087214, 55.905045, 55.604767, 3.165100
1648228060.378918, -1.588254, 4.162320, 0.563535, -1.963304, -1.007204, 0.320962, 54.535172, 57.745789, 5.336899
1648228060.412217, -0.925209, 6.285827, -4.318541, -2.143908, -0.351757, 0.687976, 54.645309, 61.580063, 9.952148
1648228060.445684, 0.026486, 26.699089, -21.635503, 1.280242, -0.384249, 0.204662, 56.423462, 61.402969, 9.633530
1648228060.478884, 1.043423, 11.903971, -8.941146, 0.743927, -0.907481, 0.330926, 54.940140, 60.025314, 7.766769
1648228060.512236, -0.076764, 2.475904, -5.922207, -0.370611, 0.570361, -0.056774, 54.581161, 60.681854, 7.788345
1648228060.545659, 0.883460, 11.483489, -4.859780, -1.064758, 0.678702, 0.153718, 55.344193, 62.646515, 9.713669
1648228060.578881, -2.505682, 16.437242, 6.439056, -1.869876, 0.123233, -1.117886, 53.781693, 64.897934, 13.111542
1648228060.612215, 0.601394, 9.279477, 3.521422, 0.260905, -0.350872, -0.724876, 52.165085, 65.439529, 13.365936
1648228060.645580, -4.821174, 3.601627, 3.546411, -1.572211, -0.390476, -0.450840, 49.636566, 67.190125, 16.080795
1648228060.678467, -2.401983, 11.828703, 3.681833, -2.632068, 0.852268, -0.300256, 49.086700, 69.593781, 20.127853
1648228060.712218, -2.871995, 11.981633, -2.532916, -1.517035, 0.896899, -0.063755, 49.348770, 70.979050, 24.030991
1648228060.745554, -0.114024, 11.144709, 2.263568, -1.864891, 0.824566, -0.038758, 49.628311, 72.663132, 27.821259
1648228060.778920, 1.508347, 7.307552, 0.304363, -2.057689, 0.357859, -0.123342, 49.374725, 73.970535, 32.264359
1648228060.812217, 1.834407, 7.444172, -0.197821, -1.802161, 1.547408, -0.146200, 49.386459, 74.633392, 35.984680
1648228060.845566, 1.278504, 9.397092, -0.462231, -1.858628, 1.528767, -0.093743, 48.943939, 75.478989, 40.509140
1648228060.878886, 0.359130, 8.686313, -0.894234, -1.156737, 1.736979, -0.155799, 48.736496, 76.013138, 43.265518
1648228060.912234, -0.491410, 8.070704, 0.326210, -0.913201, 1.576604, -0.372914, 47.715622, 76.419556, 45.260773
1648228060.945561, -1.025167, 7.449558, 1.945139, -1.571632, 0.618522, -0.557666, 46.189728, 76.505295, 47.686356
1648228060.978895, 1.172261, 10.394427, -4.338443, -1.061164, 0.922183, -0.530941, 44.062027, 76.916321, 51.550278
1648228061.012248, 2.176180, 11.453262, -0.118812, -0.529309, 1.160544, -0.378080, 42.130005, 77.073700, 52.891251
1648228061.045559, 2.746748, 12.584522, -0.681300, -0.133809, 0.569903, -0.156981, 40.904007, 77.637634, 53.265594
1648228061.078890, 1.891270, 14.685135, -3.367445, 0.168959, 0.518986, -0.046521, 39.585495, 78.876389, 52.669724
1648228061.112230, 4.266916, 14.851682, -0.798317, 1.502084, -0.087191, 0.699813, 40.167191, 80.402466, 50.261368
1648228061.145565, 4.585195, 14.063391, -0.082301, 2.701771, -0.757996, 1.190997, 42.249359, 82.727341, 45.257950
1648228061.178890, -3.690063, 12.806435, 0.205004, 3.152150, -2.352665, 0.676060, 44.011383, 84.576096, 36.332886
1648228061.212222, -3.800197, 16.265308, 3.529053, 2.662163, -0.364093, 0.438826, 44.611343, 85.422043, 29.120087
1648228061.245572, -2.354847, 12.917017, 3.021183, 2.397268, 1.161342, 0.684928, 47.024536, 84.664505, 21.781021
1648228061.278896, -2.530522, 10.939407, 0.853383, 2.443415, 1.759411, 0.763657, 50.861237, 82.756058, 14.455185
1648228061.312225, -0.683096, 8.447791, 0.181510, 1.845060, 0.455838, 0.999090, 55.818298, 79.910248, 6.518463
1648228061.345601, 1.396119, 8.549694, 1.137395, 1.533696, -0.385595, 1.214038, 58.973450, 77.448517, 1.949066
1648228061.378888, 1.262343, 6.927473, 2.541595, 1.942789, -2.503367, 1.012426, 59.551971, 74.336060, -2.425369
1648228061.412228, -0.697760, 4.084658, 2.174234, 1.649723, -2.554468, 0.620745, 56.476944, 69.610260, -9.014603
1648228061.445639, -3.135357, 3.469198, 2.036717, 0.507567, -1.979935, 0.401808, 53.870117, 67.802383, -11.455399
1648228061.478945, -3.056348, 3.383605, 1.731307, -0.507632, -1.170764, 0.356762, 52.186981, 68.132584, -12.024399
1648228061.512227, -2.190096, 2.475156, 0.694618, -1.772167, -0.731341, 0.301650, 50.981720, 71.933762, -9.804199
1648228061.545682, -2.340781, 6.945878, -12.421717, -0.897020, -0.948745, 0.278906, 50.026779, 75.459290, -7.610107
1648228061.578902, 0.217573, 22.622063, -13.314754, 0.029871, -2.257027, -0.321572, 47.473984, 75.118088, -8.270767
1648228061.612227, 3.154810, 14.790779, -10.916362, 0.402681, 0.373922, 0.711819, 46.644714, 73.561951, -9.690887
1648228061.645569, -0.269946, 5.034557, -8.213758, 0.088352, 1.033531, 0.138165, 49.770157, 71.815857, -11.044571
1648228061.678895, 1.420210, 15.586851, 2.885911, -1.221212, -0.534067, -0.229971, 50.326843, 71.609726, -9.958221
1648228061.712280, -3.584718, 15.142428, 6.412869, 0.726386, 0.778706, -1.910510, 47.585449, 70.403931, -9.783585
1648228061.745558, -2.723404, 3.413084, 1.703474, -1.183166, -1.008620, 0.232978, 42.870209, 69.033112, -9.150208
1648228061.778903, -2.370409, 6.789956, 8.362647, -3.337968, 2.768299, -0.475171, 45.158524, 72.448318, -4.952774
1648228061.812226, -0.548871, 14.075362, 2.878728, -3.271305, 1.991006, -0.301702, 47.806305, 77.226624, 1.745102
1648228061.845560, 0.020949, 11.736825, -0.423325, -1.052801, -0.256981, -0.192385, 48.478592, 78.852203, 5.380249
1648228061.878930, 0.995988, 8.095544, 2.379687, -1.659031, -1.690582, -0.248030, 46.300186, 79.984787, 8.793793
1648228061.912263, -0.304961, 6.137237, -0.454150, -1.860456, -0.296342, -0.012200, 45.079941, 81.655975, 13.313400
1648228061.945642, -1.326388, 8.268675, -0.454300, -1.960108, 1.578335, -0.186120, 45.629517, 83.269287, 17.271896
1648228061.978915, 0.285209, 9.517550, -0.740856, -1.680586, 1.690989, -0.253308, 46.546112, 84.529068, 22.051285
1648228062.012230, 0.760608, 7.906552, -0.063147, -1.246699, 1.513139, -0.278333, 46.722275, 85.399048, 24.800613
1648228062.045609, 1.107019, 8.496722, 1.455226, -0.993546, 1.294510, -0.359635, 46.449020, 85.796234, 26.636078
1648228062.078902, -1.282095, 8.678831, 1.192013, -1.434564, 0.083142, -0.620815, 45.045746, 86.546539, 29.941635
1648228062.112229, -0.042048, 10.600029, -1.908029, -1.353298, 0.636080, -0.569861, 43.661438, 87.163330, 33.011642
1648228062.145577, 1.996166, 10.580127, -2.881422, -0.552330, 1.179699, -0.432678, 42.506363, 87.373657, 34.498123
1648228062.178897, 1.877952, 11.899631, 0.171335, -0.383691, 0.608800, -0.296718, 41.544281, 87.577896, 34.752457
1648228062.212230, 3.520075, 13.942633, -2.261024, 0.092162, 0.570885, -0.049177, 40.985657, 87.709854, 34.796341
1648228062.245567, 3.315221, 15.005958, -1.748515, 1.216957, 0.285057, 0.666023, 42.565842, 87.452057, 32.084015
1648228062.278909, 2.412457, 15.101277, 1.530344, 2.978635, -0.345559, 1.632469, 47.910934, 85.739334, 24.042847
1648228062.312246, -6.838289, 14.710125, 1.145476, 3.497932, -2.519957, 0.788279, 50.124329, 82.500900, 16.441147
1648228062.345563, -7.256825, 15.470134, 2.407819, 2.825889, -0.753168, 0.222309, 50.146790, 77.983566, 9.688370
1648228062.378905, -4.376601, 12.639589, -0.342072, 2.498642, 1.228996, 0.347026, 52.087784, 72.860687, 4.657379
1648228062.412286, -1.569848, 9.609128, -0.127342, 2.463719, 1.859747, 0.441597, 56.930817, 65.548340, -0.247910
1648228062.445588, 0.082600, 7.442376, 1.544260, 1.708292, 1.376430, 0.573244, 60.348312, 60.776917, -2.586258
1648228062.478972, 0.673369, 7.489512, 2.620903, 1.492635, 0.243328, 0.668541, 62.596863, 56.778397, -3.317627
1648228062.512233, -0.547225, 5.858761, 2.939182, 2.232848, -1.940426, 0.528407, 61.451035, 50.759033, -5.999130
1648228062.545568, -1.258602, 4.459949, 2.039710, 1.768897, -1.743550, 0.542411, 59.674500, 46.392197, -7.662903
1648228062.578973, -2.654421, 2.845509, 1.930774, 0.334506, -1.021778, 0.574101, 58.713318, 44.410660, -8.335800
1648228062.612241, -0.952743, 2.837428, 1.340753, -1.223744, -0.872678, 0.600543, 57.671112, 44.581711, -7.288513
1648228062.645575, 0.386813, 4.124312, -0.440383, -2.114775, -1.140282, 0.748458, 57.071793, 46.951813, -5.279465
1648228062.678916, 0.739509, 8.283938, -14.097957, -0.681061, -0.270194, 0.872106, 57.200516, 48.086716, -3.721588
1648228062.712238, 5.275474, 26.448446, -13.699323, 1.252500, -1.533783, 0.148708, 53.764969, 43.541092, -4.265182
1648228062.745572, -1.031452, 4.065055, -3.931129, 0.444536, 0.500886, 0.839927, 55.062561, 40.745117, -3.111908
1648228062.778957, -4.693832, 5.936722, -9.235334, 0.095660, -0.650764, -0.409157, 54.259384, 39.166107, -1.045517
1648228062.812259, -3.407847, 15.614085, 10.815507, -1.045290, 0.809616, -0.802815, 53.611786, 38.839233, 1.153427
1648228062.845621, -2.064251, 10.624719, 0.537049, 0.063535, -0.462686, -0.643447, 52.471954, 38.457047, 3.728348
1648228062.878901, -2.138770, 2.819023, 6.310966, -2.186741, 1.513736, -0.555735, 53.113495, 39.698593, 6.318527
1648228062.912229, 0.218770, 10.063877, 9.288754, -4.181426, 1.567081, -0.302190, 54.458603, 43.319336, 10.784424
1648228062.945568, 2.990208, 16.620548, -5.904550, -1.127277, 1.183798, 0.421005, 56.412079, 46.070160, 15.468140
1648228062.978920, 1.181539, 8.759486, 0.938826, -1.078133, -0.587028, -0.342731, 55.889740, 46.513596, 17.533524
1648228063.012256, 0.582838, 6.466140, 1.344344, -1.936705, -0.997368, -0.016739, 54.731293, 47.874084, 20.406281
1648228063.045566, -2.539799, 7.875277, -1.119140, -1.668792, 1.219686, -0.102126, 55.053833, 49.067108, 24.139847
1648228063.078961, -1.265036, 8.495675, 0.127791, -1.818268, 1.662353, -0.343597, 55.693359, 49.701645, 27.152069
1648228063.112242, 1.345841, 8.564359, -0.009726, -1.466098, 1.151770, -0.408204, 55.590714, 50.237274, 29.563995
1648228063.145571, 1.856254, 8.475025, 1.367538, -1.215835, 1.230258, -0.294560, 55.396454, 50.405380, 31.832077
1648228063.178914, -0.805798, 8.122928, 1.775600, -1.429929, 0.115285, -0.511909, 54.822479, 50.436462, 34.962296
1648228063.212244, -1.226280, 10.188675, -1.199645, -1.341380, 0.328194, -0.691486, 53.678635, 50.390366, 37.571823
1648228063.245575, 0.990451, 11.080216, -2.089390, -0.736207, 1.286402, -0.419086, 53.108978, 50.243759, 39.687469
1648228063.278988, 2.515109, 12.529456, 0.308702, -0.294618, 0.824334, -0.236716, 52.197266, 49.785965, 41.134567
1648228063.312256, 4.649689, 12.380267, -1.063624, 0.080032, 0.649870, -0.015740, 51.701965, 49.564941, 42.039032
1648228063.345574, 3.376124, 13.644106, -3.518878, 1.004135, 0.244754, 0.280479, 51.359344, 49.715942, 42.181885
1648228063.378919, 2.707692, 13.071593, -2.210297, 2.093604, -0.585248, 0.873895, 51.832230, 49.856125, 41.322021
1648228063.412291, -0.901417, 13.952360, 2.371756, 2.606557, -0.966186, 0.844207, 52.497864, 50.096603, 38.978638
1648228063.445596, -4.075530, 14.700697, 4.141221, 2.558303, -0.583247, 0.627254, 52.976334, 50.669952, 36.325821
1648228063.478909, -3.122338, 16.224756, 1.660080, 2.581593, -0.737125, 0.784519, 53.907394, 50.822113, 33.759964
1648228063.512257, -4.660613, 13.520356, -0.129586, 2.485663, 0.344892, 0.435786, 55.181534, 50.810303, 29.770340
1648228063.545595, -2.293645, 8.306982, 0.488716, 2.346420, 0.644624, 0.509891, 56.657242, 50.381775, 26.711929
1648228063.578254, -0.564433, 7.157765, 1.485004, 1.513245, 0.514535, 0.688089, 57.963562, 50.004135, 24.539612
1648228063.612250, 0.742651, 6.891560, 1.898303, 1.518089, -0.373246, 0.823029, 59.819336, 49.760208, 22.282944
1648228063.645602, 0.115221, 5.544522, 2.120365, 2.259393, -1.918848, 0.527495, 59.441559, 48.732193, 19.091232
1648228063.678917, -0.687734, 3.794510, 2.361281, 1.133608, -1.963914, 0.346148, 58.621048, 47.603210, 16.184341
1648228063.712249, -1.893514, 3.092261, 2.306664, -0.187768, -1.607019, 0.236986, 57.275543, 47.667114, 15.690048
1648228063.745585, -1.745074, 3.106926, 1.847875, -1.066565, -1.045648, 0.299733, 56.790100, 48.977448, 16.865967
1648228063.778914, -0.563386, 6.005855, -2.496404, -1.896761, -0.620161, 0.507942, 56.733810, 50.722412, 18.951569
1648228063.812263, -1.611447, 19.140445, -26.287736, 0.520503, -0.783727, 0.154254, 57.287186, 51.951721, 19.811371
1648228063.845577, 6.074389, 21.849784, -13.083414, 0.759195, -0.523731, 0.598684, 57.208435, 51.804504, 18.588959
1648228063.878921, -1.774552, 3.229030, -5.602282, -0.299676, 0.943965, 0.554161, 59.045685, 52.463333, 18.067032
1648228063.912257, -1.112855, 9.382876, -1.942296, -0.711252, 0.453173, -0.323319, 59.699387, 53.150543, 17.951004
1648228063.945589, -2.291999, 13.336152, 11.050288, -1.552892, 0.230849, -1.473619, 58.262405, 55.662689, 19.867569
1648228063.978913, -3.089867, 21.729325, -3.510349, 0.727106, -0.176139, -1.443580, 56.675385, 55.897079, 18.428513
1648228064.012247, -1.285088, 3.398569, 6.374113, -2.332434, 1.305629, 0.386942, 57.067154, 56.865479, 19.293304
1648228064.045588, -1.435623, 9.182661, 7.000346, -3.673393, 1.563291, -0.101721, 58.884995, 60.190186, 25.660843
1648228064.078923, 1.174057, 14.513650, -3.797802, -1.605230, 0.911604, 0.045046, 59.622040, 61.724442, 28.968781
1648228064.112247, 1.520617, 9.540594, 1.312621, -1.420238, -1.290909, -0.449982, 58.858734, 62.599747, 30.341904
1648228064.145607, 1.317260, 7.120206, 0.204255, -2.004213, -0.901741, -0.068359, 57.853149, 63.659790, 34.428375
1648228064.178912, -0.298527, 6.754941, -0.779462, -1.525612, 0.688665, -0.086367, 58.079620, 64.578613, 36.839737
1648228064.212273, -0.278326, 9.759065, -0.493804, -1.970157, 1.341156, -0.051421, 58.065643, 65.156662, 39.921738
1648228064.245627, 0.592415, 9.087043, -1.816750, -1.385240, 1.689984, -0.045827, 58.563431, 65.817917, 42.990295
1648228064.278920, 0.288202, 8.854656, 0.316783, -0.904983, 1.270732, -0.187264, 58.415909, 66.272079, 45.206589
1648228064.312258, -1.491139, 7.152229, 1.534683, -1.105892, 0.353286, -0.497109, 57.641815, 66.769348, 47.191940
1648228064.345583, 0.459986, 10.816704, -1.602768, -1.204340, 0.604286, -0.502728, 56.705627, 67.155014, 48.934525
1648228064.378912, 1.921197, 10.215610, -2.456152, -0.365463, 1.282897, -0.329095, 56.042053, 67.437759, 50.384598
1648228064.412309, 1.903540, 11.860725, 0.890044, -0.097711, 0.683797, -0.172998, 55.658035, 68.099686, 49.917648
1648228064.445588, 2.036867, 12.882451, -2.843414, 0.557438, 0.896448, 0.072799, 55.720276, 68.469666, 49.170776
1648228064.478935, 3.359065, 13.881282, -2.255039, 1.480036, 0.120210, 0.509882, 56.718307, 68.846542, 44.764023
1648228064.512163, 3.636942, 14.659547, -1.178396, 2.309066, -0.365658, 0.871976, 58.339539, 68.361694, 39.534454
1648228064.545656, -2.145504, 14.673164, 1.706916, 2.849337, -1.310108, 0.671967, 59.649124, 66.799042, 33.297119
1648228064.578920, -4.261829, 14.634857, 2.804059, 2.457015, -0.491274, 0.653853, 60.313919, 63.897537, 25.930496
1648228064.612261, -3.793762, 14.437784, 1.870320, 2.365413, 0.187540, 0.748418, 61.420593, 61.387711, 21.533295
1648228064.645656, -1.937807, 10.862194, 0.455198, 2.142392, 1.106343, 0.742663, 62.761200, 58.369293, 18.015717
1648228064.678919, -0.221464, 8.693346, 1.868076, 1.380905, -0.406138, 0.860153, 63.947464, 55.938675, 15.519287
1648228064.712251, 0.145747, 7.905504, -0.336236, 1.600497, -0.516294, 0.775987, 64.199707, 53.067764, 12.397263
1648228064.745609, -0.150535, 6.863129, 1.929128, 1.736741, -1.159468, 0.541881, 63.251099, 50.787445, 9.698868
1648228064.778496, -0.558148, 4.198831, 1.468992, 1.889160, -1.508227, 0.191837, 61.299561, 48.142303, 7.026611
1648228064.812264, -1.232864, 3.379865, 1.140987, 0.666789, -1.262058, 0.033052, 58.564774, 46.047012, 5.170242
1648228064.845596, -1.785177, 3.965247, 1.228225, -0.623530, -1.193473, -0.044166, 56.425293, 46.347672, 5.843521
1648228064.878921, -1.022324, 4.129100, 0.719607, -1.473894, -1.276724, 0.080328, 54.508972, 47.611481, 7.225449
1648228064.912251, -0.461482, 6.872706, -2.781913, -1.776544, -1.281991, 0.355170, 52.066635, 49.786346, 10.317520
1648228064.945677, -0.214580, 17.245734, -23.559393, 0.938420, -0.259113, 0.430638, 51.320679, 49.301529, 10.267120
1648228064.978925, 1.968034, 13.801076, -7.265654, 0.082729, -0.044924, 0.426826, 49.812943, 48.606476, 9.985367
1648228065.012301, -3.201646, 5.416881, -6.126463, 0.150999, 0.047341, 0.351342, 49.824127, 48.990128, 10.431854
1648228065.045585, -2.143708, 12.363807, -1.060332, -0.002442, -1.287574, -0.234525, 47.636902, 49.185928, 11.250687
1648228065.078920, -3.468899, 16.348507, 1.329979, -0.020330, 1.363253, -1.181618, 46.152008, 49.565002, 11.548645
1648228065.112331, -0.299425, 5.873874, 3.384803, -0.643671, 0.339943, 0.165473, 45.629395, 49.840302, 11.914337
1648228065.145591, -2.055123, 5.374085, 5.725434, -2.529325, 2.035071, -0.364321, 46.256470, 52.477249, 14.695847
1648228065.178920, 2.297386, 12.718747, 0.255431, -1.943694, 0.590737, 0.301210, 46.682053, 55.069016, 18.640564
1648228065.212281, 0.136021, 10.108319, -0.368258, -1.113241, -0.143900, -0.251027, 46.639313, 56.436188, 20.658859
1648228065.245590, 1.460164, 11.574469, 1.623269, -1.466698, -0.369765, -0.290565, 45.240540, 57.903198, 23.449982
1648228065.278935, 0.110283, 8.409783, -0.220267, -1.600736, -0.560715, 0.260846, 44.859467, 59.300293, 25.942642
1648228065.312253, -1.658284, 9.031826, -0.155773, -1.584931, 1.141295, 0.096678, 44.869370, 60.191376, 28.697952
1648228065.345589, -1.799243, 8.960749, -0.102502, -1.541160, 1.623089, -0.117892, 45.080582, 61.571533, 31.568924
1648228065.378923, -1.227627, 8.452729, -0.298377, -1.501685, 0.846335, -0.466473, 44.409103, 62.039490, 33.757248
1648228065.411465, 2.576760, 9.461137, -0.645237, -1.277627, 1.209533, -0.499200, 43.277313, 62.677490, 36.081345
1648228065.445619, 3.457526, 9.448418, 0.237924, -1.294592, 0.407297, -0.360748, 42.102875, 63.362106, 38.376907
1648228065.478036, 0.451906, 9.181165, 0.694767, -1.230026, -0.093253, -0.408615, 40.371857, 64.099594, 41.242538
1648228065.512263, -0.382174, 10.561572, -3.163937, -0.815691, 0.802478, -0.269486, 39.044861, 64.403152, 42.910385
1648228065.545681, -0.476446, 11.717073, -1.543213, 0.019461, 0.922401, -0.198503, 37.584137, 65.266357, 43.511627
1648228065.578928, 0.781707, 10.427496, 0.623241, 0.295835, 0.891960, -0.227022, 35.562012, 65.877365, 42.346649
1648228065.612263, 2.178125, 13.955951, -1.174057, 1.099666, 0.626345, -0.018310, 34.122284, 66.433319, 40.798264
1648228065.645659, 2.292747, 15.740529, 0.727987, 1.720009, 0.008464, 0.377611, 33.640411, 67.448776, 37.989212
1648228065.678503, -0.312593, 16.390555, -0.612018, 2.924974, -0.678595, -0.192292, 32.901901, 68.121933, 34.136948
1648228065.711603, -1.753154, 14.913781, 2.588282, 3.138381, -1.398916, -0.972198, 29.627060, 66.670609, 27.281982
1648228065.745591, -4.466383, 5.907543, 3.852719, 2.080274, 0.765013, -0.002847, 29.092377, 65.821732, 22.582321
1648228065.778959, -5.411345, 9.076418, 0.089034, 1.702777, 1.353084, 0.351411, 30.263763, 65.350494, 17.613495
1648228065.812271, -3.398420, 8.493580, -0.279822, 1.689800, 0.765071, 0.891864, 33.213425, 64.470840, 12.440659
1648228065.845604, -1.500117, 6.962189, 1.980005, 1.211203, -1.623870, 1.245214, 34.679352, 64.209579, 9.720001
1648228065.878946, -0.463278, 9.534310, -0.345214, 1.821012, -2.544233, 1.499318, 34.686905, 63.897110, 7.737640
1648228065.912270, 0.712125, 10.751312, 0.065541, 2.793967, -1.225826, 2.123144, 36.677002, 62.105286, 3.261353
1648228065.944957, -0.590620, 7.036708, 0.364966, 0.919324, -0.571675, 0.570267, 38.096161, 60.355438, -0.260010
1648228065.978937, -2.816329, 5.717354, 0.523582, -0.460599, -1.875817, 0.206584, 36.737808, 60.895065, -0.246887
1648228066.012262, -0.874632, 7.039701, 0.297031, -1.096525, -1.710792, 0.102084, 33.624695, 63.122772, 2.583939
1648228066.045594, -1.297807, 8.229021, -1.157447, -0.668165, -1.110375, 0.514224, 32.291351, 65.335037, 4.572449
1648228066.078930, -0.270096, 9.450961, -4.682610, 0.338291, 0.930058, 0.786795, 33.105804, 66.637924, 4.166794
1648228066.112256, -1.043722, 9.168146, -6.540809, -0.450334, 3.005344, 0.011929, 36.552979, 67.067276, 1.985092
1648228066.145604, 0.492158, 9.366715, -11.154286, -0.797530, 1.687971, -0.647013, 39.802933, 68.841568, 1.359756
1648228066.178934, 3.350835, 10.229526, -3.490297, -0.042078, 1.806392, -0.454117, 41.099319, 69.287628, 0.604126
1648228066.212276, -0.343119, 9.167249, -2.943821, -0.056309, 0.230314, -0.210876, 42.461823, 69.349609, -0.974533
1648228066.245595, 0.913238, 10.238354, -5.295525, -0.393712, -2.455078, 0.445581, 39.830704, 69.975403, -0.065964
1648228066.278938, -4.630236, 14.128184, -2.167501, 0.023185, -2.665197, -0.818797, 36.329834, 70.022598, 1.251877
1648228066.312279, -2.875137, 13.935600, 1.639729, -0.463268, -1.205513, -0.595015, 31.610733, 68.950790, 2.318207
1648228066.345598, -3.444358, 8.734646, 2.255039, -0.910899, -0.293519, 0.166519, 31.291534, 69.579575, 4.210220
1648228066.378941, -0.998232, 9.557503, 2.577059, -1.676121, -1.427268, 0.653021, 31.396194, 71.012924, 7.410126
1648228066.412327, 3.436278, 10.015394, 1.425897, -0.816934, -0.334152, 0.443851, 31.344254, 72.549347, 10.824509
1648228066.445608, 3.077746, 8.922741, -0.772280, -0.405617, 0.225265, 0.712310, 33.606247, 73.432938, 11.464752
1648228066.478932, -0.830339, 9.635614, -0.870891, -0.415238, 0.040098, 0.978641, 35.805695, 74.278793, 11.776840
1648228066.512264, -2.354548, 9.774927, 0.544531, -0.384656, 0.079914, 0.382175, 37.529282, 74.741760, 12.580475
1648228066.545694, -1.320402, 9.972448, 0.063147, -0.258464, 0.784927, 0.036874, 38.389236, 74.841537, 12.819809
1648228066.578944, 0.632817, 8.923489, -1.745074, -0.170446, 0.701174, -0.003604, 39.551071, 74.775009, 13.026733
1648228066.612288, 1.526603, 9.515754, -0.707337, -0.201598, 1.041993, 0.165484, 40.742188, 74.904770, 12.670044
1648228066.645667, 1.238550, 9.840767, -1.427692, -0.191612, 0.011445, -0.158579, 40.830292, 74.805222, 12.864731
1648228066.678931, 2.568081, 10.291326, -1.036390, 0.057103, 0.497415, 0.105140, 41.786011, 74.615570, 12.363907
1648228066.712266, 0.167295, 10.937611, -0.380977, 0.042547, 0.940472, 0.331052, 43.526611, 74.375946, 11.826675
1648228066.745602, 0.798915, 9.494356, -0.162656, -0.073741, 0.859930, 0.346167, 45.256729, 74.344376, 11.628510
1648228066.778950, 1.535431, 8.472032, -1.599177, 0.199322, 0.984737, 0.482462, 47.899323, 74.178970, 10.923355
1648228066.812319, 1.474828, 8.550293, 0.322469, -0.235083, 1.084622, -0.187841, 48.808655, 74.156250, 11.010269
1648228066.845599, 2.386121, 8.471434, -0.574159, 0.056441, 1.421712, -0.150734, 50.310883, 74.215988, 10.496017
1648228066.878949, 1.646163, 9.537003, 0.297031, 0.081677, 1.384277, -0.240439, 51.444626, 74.015747, 10.343140
1648228066.912277, 1.982998, 10.109367, -0.261866, 0.044200, 1.381274, -0.245989, 53.079758, 73.834167, 9.487091
1648228066.945613, 0.308104, 12.433239, -2.833238, 0.067402, 1.154260, -0.351305, 54.034897, 73.842026, 9.325317
1648228066.978941, 2.150143, 11.007641, -2.256535, 0.682061, 1.206945, -0.267014, 54.949615, 73.346054, 8.166275
1648228067.012274, 2.165855, 10.004920, 1.066617, 0.556310, 1.050352, 0.043188, 56.947327, 72.164856, 6.645081
1648228067.045663, 0.352397, 10.631452, -0.200065, 0.369337, 1.075598, 0.338461, 58.981384, 71.511566, 6.307327
1648228067.078932, -0.760458, 11.477503, -2.306065, 0.512669, 1.022173, 0.395697, 61.626129, 70.866760, 5.878510
1648228067.112269, 0.845452, 13.020866, -1.744475, 0.802157, 1.015828, 0.590384, 64.931976, 68.700012, 4.956467
1648228067.145611, 2.034024, 11.716475, -1.092355, 0.828891, 0.666396, 0.992419, 67.927170, 66.832047, 4.208618
1648228067.178930, 1.710358, 10.918008, -2.274940, 1.254402, -0.057368, 1.186888, 70.457550, 64.577911, 2.943893
1648228067.212281, -0.950348, 9.563788, -1.971326, 1.307866, 0.221788, 0.727106, 72.391541, 62.184143, 1.298630
1648228067.245600, 2.823512, 8.383297, -1.218499, 0.806502, 0.680628, 0.541916, 74.938080, 59.329865, 0.662735
1648228067.278931, 4.702511, 7.786542, -1.884835, 1.048852, 0.621967, 1.015227, 77.181976, 57.541153, -0.344086
1648228067.312303, -0.626982, 8.531738, -1.479317, 0.925613, 1.589442, 0.597076, 80.244461, 55.149796, -0.243088
1648228067.345604, 0.911143, 8.523208, -3.869180, 0.608412, 1.175064, 0.163740, 83.799164, 53.465607, 0.935471
1648228067.378935, 1.990928, 8.632144, -2.997241, 0.883117, 0.702273, 0.009135, 84.891052, 52.205933, 0.822021
1648228067.412273, 1.032799, 11.553370, -1.908328, -0.408651, 0.080509, -0.106113, 85.801285, 51.941101, 1.123947
1648228067.445618, 2.972850, 9.180566, -3.182193, 0.221948, 0.342535, -0.248869, 85.436813, 52.179184, 2.023895
1648228067.478987, 5.482572, 9.039907, -2.415600, 0.588612, 0.170073, 0.286988, 85.773666, 51.213165, 2.150711
1648228067.512278, 2.934244, 8.288726, -1.022474, 0.109989, 0.582908, 0.298913, 86.634384, 50.233612, 2.434082
1648228067.545684, 3.130119, 8.246678, -4.560655, 0.037995, 0.793481, -0.242425, 87.677200, 50.472137, 4.021591
1648228067.578996, 5.016750, 8.736442, -3.442263, 0.337375, -0.452293, -0.021979, 87.532776, 49.985977, 3.916046
1648228067.612282, 3.156007, 8.218995, -3.011008, 0.178867, -0.481934, -0.113935, 86.574265, 49.873215, 3.293930
1648228067.645664, 3.517681, 7.528417, -6.560861, 0.463018, 0.245343, -0.366917, 86.174026, 49.476608, 3.203568
1648228067.678935, 3.312079, 8.375965, -6.311415, 1.461998, -0.823069, -0.362766, 84.829590, 48.044144, 1.584915
1648228067.712329, 3.204040, 7.731925, -0.627281, 0.541528, -2.379088, -0.499400, 81.681015, 46.946716, -1.162811
1648228067.745607, 1.378761, 6.704662, -3.051560, -0.319210, -1.937902, -0.974530, 77.428970, 47.536713, -2.287048
1648228067.778944, 3.175759, 6.772299, -4.701314, -0.709341, -2.042780, -0.678777, 72.365891, 49.459442, -2.571045
1648228067.812274, 3.295020, 6.391621, -17.464953, 2.025758, 0.018376, -0.263426, 70.440536, 48.630402, -3.672806
1648228067.845608, 3.916764, 8.745570, -10.278757, 4.190068, 1.812094, 0.468056, 72.349304, 42.356430, -7.387268
1648228067.878962, -0.165499, 7.763349, 2.157026, 1.624693, -1.091231, 0.300340, 73.981598, 35.596863, -9.406631
1648228067.912273, -0.133926, 7.475146, -2.639308, -0.460012, -0.892129, -0.603668, 71.614975, 35.654938, -10.250214
1648228067.945604, 2.684648, 6.298845, -9.717915, 0.067229, 0.162921, -0.397824, 70.862854, 36.379578, -10.155350
1648228067.978939, 2.424728, 6.288371, -11.502343, 2.207729, -0.355388, 0.048458, 71.054367, 34.162582, -10.497482
1648228068.012299, 1.908628, 6.418855, -5.875221, 2.051134, -0.941528, -0.010166, 69.452545, 28.748718, -12.694550
1648228068.045617, 2.520795, 5.109975, -6.364985, 1.252640, -1.156098, 0.089658, 67.444550, 25.822922, -13.962723
1648228068.078947, 1.983147, 4.888212, -10.768371, 1.917539, -0.779349, 0.219013, 65.879700, 22.750916, -14.577896
1648228068.112295, 2.924218, 5.510554, -6.374412, 1.657155, 0.228933, 0.518968, 66.002258, 17.811661, -15.122238
1648228068.145610, 2.341679, 4.430769, -12.307094, 2.044612, -0.839271, 0.561248, 65.656357, 14.473312, -15.422028
1648228068.178943, 1.122731, 5.487510, -9.838373, 2.394373, -1.013052, 0.293769, 63.991043, 10.041870, -15.903549
1648228068.212273, 2.696021, 4.980538, -6.908020, 1.909994, 0.574243, 0.658951, 64.259308, 4.340469, -14.991104
1648228068.245655, -0.542736, 4.652832, -4.262726, 0.853209, -0.143378, 0.675068, 64.600082, 2.028610, -14.667877
1648228068.278941, -0.813879, 4.248511, -10.585813, 1.088244, -0.038786, 0.451291, 64.417145, 0.462128, -14.283310
1648228068.312281, 1.332074, 3.476082, -8.014590, 0.839960, 0.295647, 0.557748, 64.827057, -1.944427, -13.682465
1648228068.345618, 1.630900, 3.626467, -8.266580, 0.952225, -0.006907, 0.653245, 64.906250, -3.783615, -12.875549
1648228068.378959, 0.820463, 3.351284, -7.906552, 0.575459, -0.225789, 0.746435, 64.364731, -5.571701, -13.031448
1648228068.412312, 0.812682, 2.578106, -8.647557, 0.257324, -0.065258, 0.543105, 64.012024, -5.985046, -12.709213